"Time (s)"	"Linear Acceleration x (m/s^2)"	"Linear Acceleration y (m/s^2)"	"Linear Acceleration z (m/s^2)"	"Absolute acceleration (m/s^2)"
-2.278333333e-3	1.198445320e-1	7.994278157e-1	1.383530161e-1	8.201152976e-1
7.702666662e-3	6.895153642e-2	7.360223633e-1	3.506446588e-1	8.181900210e-1
1.768370833e-2	8.639144182e-2	6.693445167e-1	4.772541270e-1	8.265936517e-1
2.766470833e-2	2.401685357e-1	6.676543790e-1	5.719989011e-1	9.113868762e-1
3.764570833e-2	4.973840439e-1	6.424148726e-1	6.335423076e-1	1.030273561e0
4.762670833e-2	7.569928175e-1	5.781422782e-1	6.480311233e-1	1.152055101e0
5.760770833e-2	9.434342122e-1	4.802382535e-1	6.202971947e-1	1.226974125e0
6.758870833e-2	1.064460467e0	3.984909627e-1	6.164549893e-1	1.293015037e0
7.757070833e-2	1.087033058e0	3.310614565e-1	5.568856028e-1	1.265450169e0
8.755170833e-2	1.124031315e0	2.275739256e-1	4.637011582e-1	1.237034782e0
9.753270833e-2	1.209034628e0	9.973654211e-2	3.942809674e-1	1.275605578e0
1.075137083e-1	1.259203738e0	4.303229123e-2	3.608193988e-1	1.310586308e0
1.174947083e-1	1.281433682e0	7.702536037e-3	3.561451346e-1	1.330026680e0
1.274757083e-1	1.226846416e0	-7.774662584e-2	4.551268011e-1	1.310853566e0
1.374567083e-1	1.137496283e0	-1.841554257e-1	6.428004965e-1	1.319470914e0
1.474377083e-1	1.014518228e0	-3.228896803e-1	7.676604778e-1	1.312557652e0
1.574187083e-1	9.308059806e-1	-3.984371683e-1	8.040430230e-1	1.292918069e0
1.673997083e-1	9.381535918e-1	-3.292353711e-1	6.903632104e-1	1.210425319e0
1.773807083e-1	9.494890040e-1	-1.014059222e-1	4.582784504e-1	1.059165553e0
1.873617083e-1	8.447109926e-1	2.014430112e-1	2.273771667e-1	8.976727264e-1
1.973437083e-1	6.479820067e-1	5.597001600e-1	9.405948043e-2	8.613896540e-1
2.073247083e-1	3.486402333e-1	8.112792447e-1	1.263937059e-1	8.920198395e-1
2.173057083e-1	-1.524486065e-1	8.812534592e-1	2.556414378e-1	9.301616965e-1
2.272867083e-1	-7.087398398e-1	7.536926490e-1	4.351369250e-1	1.122367548e0
2.372677083e-1	-1.119562288e0	5.146985266e-1	5.400558543e-1	1.345360404e0
2.472487083e-1	-1.160375268e0	2.636957032e-1	5.386735725e-1	1.306206494e0
2.572297083e-1	-8.138283384e-1	1.520980476e-1	4.398500732e-1	9.375065159e-1
2.672107083e-1	-2.972069550e-1	1.602812259e-1	3.141285047e-1	4.611927611e-1
2.771917083e-1	1.171407795e-1	2.444919670e-1	2.517752588e-1	3.699852228e-1
2.871727083e-1	2.590246367e-1	3.940520489e-1	2.855926305e-1	5.513020318e-1
2.971537083e-1	1.119157076e-3	4.912269258e-1	4.309199131e-1	6.534501639e-1
3.071347083e-1	-5.469485521e-1	5.165064856e-1	5.948477733e-1	9.590492906e-1
3.171167083e-1	-1.177760210e0	5.455689016e-1	6.986963698e-1	1.474089942e0
3.270977083e-1	-1.697685855e0	5.926252466e-1	7.772727156e-1	1.958952480e0
3.370787083e-1	-2.106073523e0	5.601062492e-1	8.105386949e-1	2.325131753e0
3.470597083e-1	-2.304723904e0	5.222104080e-1	7.386474708e-1	2.475895003e0
3.570407083e-1	-2.057510642e0	6.328590605e-1	5.182673746e-1	2.214150335e0
3.670217083e-1	-1.539246776e0	8.374548903e-1	2.279215425e-1	1.767076558e0
3.770027083e-1	-9.241892713e-1	9.038064623e-1	-8.338421881e-3	1.292695424e0
3.869837083e-1	-3.113659877e-1	8.508064225e-1	-1.761742687e-1	9.229613859e-1
3.969647083e-1	1.618614542e-1	8.359135643e-1	-2.468507338e-1	8.865020598e-1
4.069457083e-1	4.257924896e-1	8.583838293e-1	-2.593152434e-1	9.926562537e-1
4.169267083e-1	4.910684663e-1	9.312702495e-1	-2.661728579e-1	1.085937616e0
4.269087083e-1	3.974393409e-1	1.014710309e0	-2.239390039e-1	1.112539311e0
4.368897083e-1	1.148211890e-1	1.014001042e0	-1.000961459e-1	1.025378592e0
4.468707083e-1	-2.199979806e-1	9.890629596e-1	-1.763520241e-3	1.013236280e0
4.568517083e-1	-4.219917995e-1	1.009375310e0	6.539350569e-2	1.095989008e0
4.668327083e-1	-5.136790645e-1	1.003684507e0	1.094283020e-1	1.132794476e0
4.768137083e-1	-4.965344435e-1	9.377074492e-1	1.467370462e-1	1.071155206e0
4.867947083e-1	-4.448456419e-1	8.849790126e-1	1.034395838e-1	9.958791319e-1
4.967757083e-1	-3.022858465e-1	7.981826511e-1	-4.522996724e-2	8.547034734e-1
5.067567083e-1	-1.156883311e-1	7.917135841e-1	-2.932571608e-1	8.521701423e-1
5.167377083e-1	5.095088303e-2	8.547047612e-1	-5.528264657e-1	1.019182674e0
5.267187083e-1	1.831540900e-1	9.478938836e-1	-7.410024369e-1	1.217018014e0
5.366997083e-1	1.970862508e-1	1.043635316e0	-8.437321687e-1	1.356429738e0
5.466817083e-1	8.900573194e-2	1.068624269e0	-8.201453778e-1	1.350006774e0
5.566627083e-1	-1.745230150e-1	9.766525367e-1	-6.773344445e-1	1.201286981e0
5.666437083e-1	-3.718653738e-1	8.834932351e-1	-5.667887396e-1	1.113594912e0
5.766247083e-1	-4.276080501e-1	8.281385216e-1	-5.167576236e-1	1.065692496e0
5.866057083e-1	-2.709038401e-1	7.321617392e-1	-5.249454796e-1	9.407536657e-1
5.965867083e-1	2.267725646e-2	6.398938456e-1	-5.619469526e-1	8.519171140e-1
6.065677083e-1	3.701644188e-1	6.703499454e-1	-6.047251824e-1	9.757475557e-1
6.165487083e-1	6.645302117e-1	8.115678048e-1	-5.959371096e-1	1.206392864e0
6.265297083e-1	7.467923498e-1	9.669411886e-1	-5.056438208e-1	1.322251772e0
6.365107083e-1	6.217402875e-1	1.106421548e0	-3.393770742e-1	1.313737579e0
6.464917083e-1	4.452403289e-1	1.237060040e0	-9.174164414e-2	1.317942723e0
6.564737083e-1	1.615468740e-1	1.309927749e0	1.998554921e-1	1.334897119e0
6.664547083e-1	-1.103024608e-1	1.269760886e0	4.587497360e-1	1.354588742e0
6.764357083e-1	-2.463256538e-1	1.171335582e0	6.873287979e-1	1.380262384e0
6.864167083e-1	-2.174521029e-1	1.086733096e0	7.512745330e-1	1.338912866e0
6.963977083e-1	-3.746135652e-2	1.010922191e0	7.374493763e-1	1.251878034e0
7.063787083e-1	1.695177984e-1	9.059731480e-1	7.046386027e-1	1.160189290e0
7.163597083e-1	3.160718268e-1	7.970485836e-1	6.242651153e-1	1.060610569e0
7.263407083e-1	4.279875344e-1	6.829805160e-1	5.688323414e-1	9.865120108e-1
7.363217083e-1	5.469380271e-1	6.267542750e-1	4.466173482e-1	9.441552745e-1
7.463027083e-1	6.040776032e-1	6.629602343e-1	3.197865629e-1	9.522024306e-1
7.562837083e-1	6.999532288e-1	8.115859312e-1	2.309588787e-1	1.096334005e0
7.662647083e-1	8.092447060e-1	9.108254600e-1	2.852002823e-1	1.251326981e0
7.762457083e-1	6.400438267e-1	8.612302539e-1	4.895908749e-1	1.179437525e0
7.862277083e-1	1.948397505e-1	7.026780313e-1	8.070286113e-1	1.087664527e0
7.962087083e-1	-2.683544540e-1	5.685218543e-1	1.183478495e0	1.340094235e0
8.061897083e-1	-7.259423482e-1	4.095997953e-1	1.575428762e0	1.782341176e0
8.161707083e-1	-9.631305581e-1	1.774758589e-1	1.845863948e0	2.089576958e0
8.261517083e-1	-8.513300407e-1	-6.539379805e-2	1.875107335e0	2.060355965e0
8.361327083e-1	-4.789378327e-1	-2.268085250e-1	1.552282266e0	1.640245039e0
8.461137083e-1	1.198480403e-1	-1.873722714e-1	9.623230577e-1	9.876930637e-1
8.560947083e-1	8.243141502e-1	5.365522027e-2	3.784888074e-1	9.086399057e-1
8.660757083e-1	1.292376162e0	3.883340567e-1	-8.483081996e-2	1.352122684e0
8.760567083e-1	1.265904647e0	6.883812967e-1	-3.892886147e-1	1.492624873e0
8.860377083e-1	6.434165007e-1	7.913434553e-1	-4.954977322e-1	1.133899140e0
8.960197083e-1	-2.876689768e-1	7.722432330e-1	-3.881370056e-1	9.109134900e-1
9.060007083e-1	-1.163066157e0	7.023710525e-1	-1.589185506e-1	1.367955806e0
9.159817083e-1	-1.776840198e0	6.273527375e-1	8.277786255e-2	1.886156070e0
9.259627083e-1	-1.883417398e0	5.647521544e-1	3.420106602e-1	1.995789914e0
9.359437083e-1	-1.581063724e0	4.860816684e-1	6.708440351e-1	1.784956472e0
9.459247083e-1	-1.022725380e0	3.369025326e-1	9.797135541e-1	1.455784726e0
9.559057083e-1	-4.653518271e-1	2.121878546e-1	1.216306225e0	1.319460815e0
9.658867083e-1	-1.584466803e-1	1.296427113e-1	1.369531342e0	1.384748598e0
9.758677083e-1	-8.417768598e-2	5.119968206e-2	1.432518718e0	1.435902910e0
9.858487083e-1	-3.148602837e-1	-2.618383398e-2	1.397897647e0	1.433157501e0
9.958297083e-1	-6.962659746e-1	-1.416613707e-1	1.210091512e0	1.403273216e0
1.005810708e0	-8.748884726e-1	-1.465592909e-1	8.949537778e-1	1.260099889e0
1.015792708e0	-9.370858902e-1	-9.457871318e-2	5.251290822e-1	1.078348576e0
1.025773042e0	-9.102278745e-1	-5.837596983e-2	9.800050378e-2	9.173476092e-1
1.035754042e0	-7.640276027e-1	-9.087157845e-3	-2.761423606e-1	8.124502184e-1
1.045735042e0	-5.907640779e-1	4.345387548e-2	-5.422245866e-1	8.030553763e-1
1.055716042e0	-5.435770476e-1	7.300482174e-2	-6.469590363e-1	8.481519353e-1
1.065697042e0	-5.417649955e-1	8.989363164e-2	-6.551205799e-1	8.548527063e-1
1.075678042e0	-5.116553432e-1	1.384869173e-1	-5.923758629e-1	7.949081578e-1
1.085659042e0	-4.339820999e-1	1.886954963e-1	-4.659125751e-1	6.640941055e-1
1.095640042e0	-4.093980664e-1	3.289204985e-1	-3.288702124e-1	6.196378682e-1
1.105621042e0	-4.607728726e-1	4.498581675e-1	-1.849284276e-1	6.699869658e-1
1.115602042e0	-5.784796625e-1	5.194034886e-1	-2.935974687e-2	7.779978783e-1
1.125583042e0	-6.821905571e-1	5.883892313e-1	1.004829392e-1	9.064671339e-1
1.135565042e0	-6.680449730e-1	6.463269523e-1	1.568550682e-1	9.426696811e-1
1.145546042e0	-4.773444664e-1	6.961376283e-1	1.587723702e-1	8.588795042e-1
1.155527042e0	-2.592702198e-1	6.941139069e-1	1.250339359e-1	7.514310666e-1
1.165508042e0	-6.088471770e-2	6.437150010e-1	1.072864670e-1	6.554283618e-1
1.175489042e0	1.003300345e-1	5.381695426e-1	1.274722248e-1	5.620869510e-1
1.185470042e0	2.475395358e-1	4.415223768e-1	1.750293839e-1	5.355867028e-1
1.195451042e0	4.053441918e-1	3.614573300e-1	2.658132541e-1	6.046585824e-1
1.205432042e0	5.372304797e-1	3.116080624e-1	3.463913941e-1	7.111280973e-1
1.215413042e0	6.550612307e-1	3.167805094e-1	4.086630714e-1	8.345421577e-1
1.225394042e0	6.604161108e-1	2.474015415e-1	4.791685054e-1	8.526191521e-1
1.235375042e0	6.207000679e-1	1.413476676e-1	5.326269668e-1	8.300236281e-1
1.245357042e0	6.362524921e-1	1.414192960e-1	5.378289422e-1	8.450305450e-1
1.255338042e0	7.220884484e-1	2.097282234e-1	5.066767314e-1	9.067077617e-1
1.265319042e0	6.876769996e-1	1.030118600e-1	4.459601212e-1	8.260699297e-1
1.275300042e0	5.278123695e-1	-5.304009318e-2	3.015300938e-1	6.101799295e-1
1.285281042e0	5.354055637e-1	-7.318608999e-2	9.932665229e-2	5.494370804e-1
1.295262042e0	6.735372627e-1	-2.423676598e-4	-9.324934870e-2	6.799617224e-1
1.305243042e0	8.333516067e-1	7.618308038e-2	-1.724434528e-1	8.544094490e-1
1.315224042e0	9.698150951e-1	1.617295995e-1	-6.644425035e-2	9.854504657e-1
1.325205042e0	1.017485690e0	1.199983138e-1	1.820553982e-1	1.040586802e0
1.335186042e0	8.430351806e-1	-2.614144395e-2	4.020159566e-1	9.343492496e-1
1.345167042e0	5.445763367e-1	-1.618988764e-1	5.391355026e-1	7.832252057e-1
1.355148042e0	3.219897938e-1	-2.166285226e-1	5.765854570e-1	6.950223977e-1
1.365129042e0	2.313643831e-1	-1.427103703e-1	5.593233070e-1	6.218828582e-1
1.375111042e0	2.051004446e-1	1.072816978e-2	5.608394900e-1	5.972622703e-1
1.385092042e0	9.598204494e-2	4.872866699e-2	5.786305207e-1	5.885578267e-1
1.395073042e0	-4.530890465e-2	-2.932992607e-2	5.914791924e-1	5.939366771e-1
1.405054042e0	-1.363325107e-1	-1.055504286e-1	5.775411844e-1	6.027281860e-1
1.415035042e0	-1.059363449e-1	-1.515928665e-1	5.233655620e-1	5.550805507e-1
1.425016042e0	-2.534767985e-3	-2.174909869e-1	4.531206214e-1	5.026201866e-1
1.434997042e0	1.658475012e-1	-3.099819517e-1	3.783060819e-1	5.164394404e-1
1.444978042e0	4.191763651e-1	-4.101725301e-1	2.743671459e-1	6.474779226e-1
1.454959042e0	6.258251524e-1	-4.347396067e-1	1.247661334e-1	7.721542819e-1
1.464940042e0	7.238361812e-1	-3.303296775e-1	-1.046242297e-2	7.957172709e-1
1.474921042e0	5.289461446e-1	-1.897471181e-1	-1.083366269e-1	5.722978398e-1
1.484903042e0	2.816194475e-2	-3.136125793e-2	-1.480985704e-1	1.539799019e-1
1.494884042e0	-6.331294942e-1	2.972431163e-2	-1.154161432e-1	6.442494682e-1
1.504865042e0	-1.319615416e0	2.472902616e-2	-6.589227319e-3	1.319863549e0
1.514846042e0	-1.835825740e0	3.158168882e-2	1.482953292e-1	1.842076289e0
1.524827042e0	-2.149508395e0	4.753757089e-2	2.705109072e-1	2.166984612e0
1.534808042e0	-2.151940252e0	6.895151814e-2	3.348662397e-1	2.178930140e0
1.544789042e0	-1.785609267e0	9.606388768e-2	2.632808250e-1	1.807469369e0
1.554770042e0	-1.184063509e0	1.322973472e-1	1.046920574e-1	1.196022327e0
1.564751042e0	-6.112883896e-1	1.861858531e-1	-8.477790266e-2	6.446130311e-1
1.574732042e0	-1.500752217e-1	2.244102895e-1	-1.822723299e-1	3.257387795e-1
1.584713042e0	1.383468765e-1	1.599260259e-1	-1.824018458e-1	2.792608553e-1
1.594694042e0	1.991339457e-1	7.202510705e-2	-8.929458439e-2	2.298161595e-1
1.604676042e0	1.138944054e-1	3.457460443e-2	2.385079265e-3	1.190505248e-1
1.614657042e0	-2.199196279e-2	2.764271200e-3	7.287501812e-2	7.617122743e-2
1.624638042e0	-1.137564111e-1	-3.155566871e-2	1.366260409e-1	1.805628875e-1
1.634619042e0	-9.361509204e-2	-3.043797344e-2	2.366514355e-1	2.563087154e-1
1.644600042e0	-2.500678718e-2	1.494314432e-2	2.989201891e-1	3.003363389e-1
1.654581042e0	-7.664530277e-3	4.528522342e-2	2.624288857e-1	2.664177482e-1
1.664562042e0	-2.685041428e-3	9.582067092e-2	1.113216305e-1	1.469058060e-1
1.674543042e0	5.093158722e-2	1.483751620e-1	-8.757257938e-2	1.796612700e-1
1.684524042e0	4.415758789e-2	1.690278200e-1	-2.841062683e-1	3.335216158e-1
1.694505042e0	-4.137489796e-2	1.403907707e-1	-4.096091509e-1	4.349725361e-1
1.704486042e0	-1.479620379e-1	1.032135706e-1	-4.920627853e-1	5.240912044e-1
1.714467042e0	-1.721467066e-1	1.659708774e-1	-5.575150555e-1	6.066332153e-1
1.724449042e0	-1.416908991e-1	2.761146046e-1	-6.052283353e-1	6.801594839e-1
1.734430042e0	-1.291164619e-1	3.511302701e-1	-6.036969495e-1	7.102207643e-1
1.744411042e0	-1.677115935e-1	3.897976148e-1	-5.845555043e-1	7.223395993e-1
1.754392042e0	-2.142852509e-1	4.225259061e-1	-5.968036669e-1	7.619848601e-1
1.764373042e0	-2.114856040e-1	5.108931586e-1	-5.956848022e-1	8.127597209e-1
1.774354042e0	-2.104991788e-1	5.696866196e-1	-5.232243517e-1	8.016336265e-1
1.784335042e0	-1.942082512e-1	5.295296602e-1	-3.852022880e-1	6.830075465e-1
1.794316042e0	-1.116806495e-1	4.096383870e-1	-1.633969331e-1	4.549447585e-1
1.804297042e0	8.596868813e-2	3.116326207e-1	8.225015134e-2	3.335724704e-1
1.814278042e0	3.193936300e-1	2.755567619e-1	2.897540939e-1	5.117628893e-1
1.824259042e0	5.674547374e-1	3.050366691e-1	4.699798983e-1	7.974542955e-1
1.834240042e0	7.316474766e-1	3.518369061e-1	5.941645262e-1	1.006046084e0
1.844222042e0	7.475916642e-1	3.546923938e-1	7.128983796e-1	1.092210644e0
1.854203042e0	6.020965666e-1	3.674893177e-1	7.717190301e-1	1.045523283e0
1.864184042e0	4.062844241e-1	3.691382325e-1	7.276076353e-1	9.114510073e-1
1.874165042e0	2.949464214e-1	4.578425404e-1	5.810255402e-1	7.963691743e-1
1.884146042e0	2.138788694e-1	6.083062730e-1	4.339940867e-1	7.772590044e-1
1.894127042e0	7.808956504e-2	6.176153693e-1	3.489828801e-1	7.136776409e-1
1.904108042e0	-1.944900870e-2	4.751821661e-1	3.114121807e-1	5.684662709e-1
1.914089042e0	3.177844763e-2	3.576589787e-1	2.182093173e-1	4.201727275e-1
1.924070042e0	2.565845937e-1	3.771956956e-1	5.987139523e-2	4.601052385e-1
1.934051042e0	5.308312869e-1	4.900255788e-1	-1.213174456e-1	7.325468215e-1
1.944032042e0	7.117634350e-1	6.104034135e-1	-2.808873761e-1	9.788244136e-1
1.954013042e0	7.653800637e-1	6.761445361e-1	-4.181437469e-1	1.103549849e0
1.963995042e0	6.607189965e-1	6.773440924e-1	-5.772681195e-1	1.108414676e0
1.973976042e0	4.947165442e-1	7.161792523e-1	-6.681361896e-1	1.097298113e0
1.983957042e0	3.699585968e-1	7.567174137e-1	-6.439711091e-1	1.060277981e0
1.993938042e0	2.499713928e-1	7.289027935e-1	-3.940546802e-1	8.654848760e-1
2.003919042e0	1.284738529e-1	6.242999062e-1	9.423255801e-2	6.443102349e-1
2.013900042e0	5.767459631e-2	4.279609296e-1	7.059589040e-1	8.275595994e-1
2.023881167e0	-6.363524795e-3	1.875982298e-1	1.166440293e0	1.181446803e0
2.033862167e0	-1.517486948e-1	-3.936522821e-2	1.346974830e0	1.356067285e0
2.043843167e0	-1.261951929e-1	-1.196480838e-1	1.290848577e0	1.302509477e0
2.053824167e0	1.043710452e-1	-4.356778655e-3	1.117637092e0	1.122508337e0
2.063805167e0	3.478339022e-1	1.780705208e-1	8.838051841e-1	9.663380036e-1
2.073786167e0	4.868859529e-1	3.381661159e-1	6.883003128e-1	9.083895495e-1
2.083768167e0	3.485583723e-1	4.477099004e-1	5.548925793e-1	7.936264035e-1
2.093749167e0	-6.313764989e-2	5.478466845e-1	4.498453036e-1	7.116762956e-1
2.103730167e0	-6.495356119e-1	6.266466862e-1	3.378068045e-1	9.636887555e-1
2.113711167e0	-1.308370051e0	6.985323554e-1	1.750741151e-1	1.493462617e0
2.123692167e0	-1.837965236e0	7.958996058e-1	2.473372221e-4	2.002891024e0
2.133673167e0	-2.166571739e0	8.302818185e-1	-1.611735293e-1	2.325806937e0
2.143654167e0	-2.295186510e0	8.071145654e-1	-2.501783842e-1	2.445793176e0
2.153635167e0	-2.173097817e0	7.446724418e-1	-2.402843106e-1	2.309681302e0
2.163616167e0	-1.775046272e0	7.394488317e-1	-1.590179533e-1	1.929471573e0
2.173597167e0	-1.281877486e0	7.121271318e-1	-4.580357909e-2	1.467117210e0
2.183578167e0	-9.115686411e-1	6.929988429e-1	4.428739607e-2	1.145934622e0
2.193559167e0	-7.170539957e-1	6.232672879e-1	1.137993881e-1	9.568588431e-1
2.203540167e0	-6.217724472e-1	4.583532947e-1	2.325884977e-1	8.067131635e-1
2.213522167e0	-5.786147332e-1	2.289424664e-1	2.694706875e-1	6.781033209e-1
2.223503167e0	-3.887018466e-1	3.832966805e-2	2.200523597e-1	4.483094133e-1
2.233484167e0	-2.330583215e-2	-1.206137332e-1	1.063257694e-1	1.624684699e-1
2.243465167e0	4.443778646e-1	-2.862612779e-1	-5.984332860e-3	5.286331601e-1
2.253446167e0	8.926183999e-1	-3.710280526e-1	-3.713391244e-2	9.673718783e-1
2.263427167e0	1.239553000e0	-4.025451297e-1	6.154603779e-2	1.304730676e0
2.273408167e0	1.450035222e0	-3.777225298e-1	2.113417625e-1	1.513255364e0
2.283389167e0	1.465306980e0	-2.261515903e-1	3.918722069e-1	1.533568686e0
2.293370167e0	1.200981842e0	-2.979627807e-2	5.962177759e-1	1.341163987e0
2.303351167e0	6.826583344e-1	7.400349420e-2	7.770630929e-1	1.036979252e0
2.313332167e0	1.120934629e-1	7.783755004e-2	9.265199715e-1	9.365163566e-1
2.323313167e0	-3.310395294e-1	3.715437770e-2	9.743770927e-1	1.029746734e0
2.333295167e0	-5.823744929e-1	4.754151776e-3	8.753474790e-1	1.051387588e0
2.343276167e0	-5.658947003e-1	8.244939521e-3	6.253047502e-1	8.433924481e-1
2.353257167e0	-3.783587068e-1	5.900074482e-2	2.551222050e-1	4.601344786e-1
2.363238167e0	-9.742279887e-2	1.403393152e-1	-1.062795764e-1	2.012005803e-1
2.373219167e0	1.451103508e-1	1.054612586e-1	-3.620964307e-1	4.040951820e-1
2.383200167e0	3.091393679e-1	8.835069761e-3	-4.149608150e-1	5.175303713e-1
2.393181167e0	4.170433009e-1	-1.206851424e-1	-2.991494000e-1	5.272384488e-1
2.403162167e0	4.853715241e-1	-2.672499150e-1	-1.223705292e-1	5.674350887e-1
2.413143167e0	5.995477653e-1	-3.990528801e-1	6.311543047e-2	7.229690737e-1
2.423124167e0	6.645489228e-1	-5.558114693e-1	2.526125801e-1	9.024216175e-1
2.433105167e0	7.477214724e-1	-6.928843106e-1	3.693203732e-1	1.084238722e0
2.443086167e0	9.024961013e-1	-7.120377425e-1	3.966818342e-1	1.216081180e0
2.453068167e0	9.559887689e-1	-5.933818763e-1	3.984082246e-1	1.193627116e0
2.463049167e0	9.084397960e-1	-5.241359326e-1	4.185665005e-1	1.129238351e0
2.473030167e0	7.773919988e-1	-5.776095968e-1	4.478622204e-1	1.067029397e0
2.483011167e0	6.920284975e-1	-6.685659599e-1	4.146453577e-1	1.047766509e0
2.492992167e0	6.402040404e-1	-7.192524757e-1	3.037242615e-1	1.009670126e0
2.502973167e0	6.945930862e-1	-7.224998000e-1	9.904423177e-2	1.007112345e0
2.512954167e0	8.619099927e-1	-6.247719958e-1	-9.733041286e-2	1.068972447e0
2.522935167e0	9.790823472e-1	-5.115515551e-1	-2.702436894e-1	1.137241789e0
2.532916167e0	9.585106730e-1	-4.247987553e-1	-3.777295464e-1	1.114395039e0
2.542897167e0	8.413225311e-1	-4.323700956e-1	-3.899113432e-1	1.023131642e0
2.552878167e0	6.460062325e-1	-4.957881195e-1	-3.186513260e-1	8.744533032e-1
2.562859167e0	4.469985867e-1	-5.464521235e-1	-1.619111556e-1	7.243154576e-1
2.572841167e0	2.385184515e-1	-6.077109899e-1	1.373744845e-2	6.529873019e-1
2.582822167e0	2.438873649e-2	-7.051379550e-1	2.088338917e-1	7.358165127e-1
2.592803167e0	-7.008355737e-2	-7.179561480e-1	3.544453490e-1	8.037438901e-1
2.602784167e0	-2.220889449e-2	-6.800466024e-1	4.936435801e-1	8.406191769e-1
2.612765167e0	4.533521712e-2	-6.141252393e-1	5.987662849e-1	8.589098645e-1
2.622746167e0	-7.955721617e-3	-5.867040637e-1	6.681309271e-1	8.892040753e-1
2.632727167e0	-2.873590744e-1	-6.514423889e-1	6.815122801e-1	9.856020554e-1
2.642708167e0	-5.246911258e-1	-6.944373310e-1	6.394278225e-1	1.080005521e0
2.652689167e0	-7.003911853e-1	-6.769573722e-1	5.732993218e-1	1.130261566e0
2.662670167e0	-8.337959951e-1	-6.218485341e-1	5.058388254e-1	1.156626248e0
2.672651167e0	-9.592363125e-1	-6.298311529e-1	4.596148315e-1	1.236150225e0
2.682632167e0	-1.122339131e0	-7.380806563e-1	4.214287126e-1	1.407838890e0
2.692614167e0	-1.301263345e0	-8.293121309e-1	3.088244954e-1	1.573663710e0
2.702595167e0	-1.427329314e0	-8.676643107e-1	1.501912889e-1	1.677100996e0
2.712576167e0	-1.516080108e0	-8.377101213e-1	-8.332574666e-2	1.734128115e0
2.722557167e0	-1.577063643e0	-8.320874387e-1	-3.112695086e-1	1.810079542e0
2.732538167e0	-1.584311267e0	-9.392340110e-1	-5.285391784e-1	1.916130575e0
2.742519167e0	-1.490476320e0	-1.007676693e0	-7.483629119e-1	1.948583852e0
2.752500167e0	-1.259154621e0	-9.177514869e-1	-1.007039055e0	1.855226620e0
2.762481167e0	-7.076253605e-1	-6.897855055e-1	-1.067992185e0	1.455041237e0
2.772462167e0	1.693353653e-3	-5.415612200e-1	-8.639424849e-1	1.019650940e0
2.782443167e0	6.658072436e-1	-6.123812342e-1	-4.287617058e-1	1.001072756e0
2.792424167e0	1.225847712e0	-7.723631009e-1	4.013177991e-2	1.449433659e0
2.802405167e0	1.480251878e0	-6.999307171e-1	3.810949114e-1	1.681154949e0
2.812387167e0	1.477632326e0	-5.151043233e-1	5.807711864e-1	1.669138977e0
2.822368167e0	1.221404412e0	-4.576180074e-1	7.466824222e-1	1.502923025e0
2.832349167e0	7.359252995e-1	-5.236418429e-1	8.092078686e-1	1.212684708e0
2.842330167e0	2.684942025e-1	-6.179577237e-1	7.533809924e-1	1.010714502e0
2.852311167e0	-1.151264137e-1	-7.034653589e-1	5.058455497e-1	8.740694037e-1
2.862292167e0	-3.554966784e-1	-7.342293146e-1	1.446525139e-1	8.284895440e-1
2.872273167e0	-4.537626457e-1	-7.501226315e-1	-2.818784791e-1	9.208908610e-1
2.882254167e0	-4.444082701e-1	-7.000097276e-1	-7.246144456e-1	1.101171387e0
2.892235167e0	-3.840451241e-1	-5.838933802e-1	-1.060064530e0	1.269708212e0
2.902216167e0	-3.125822085e-1	-5.288900844e-1	-1.198319313e0	1.346625981e0
2.912197167e0	-2.746635997e-1	-5.474122363e-1	-1.196381253e0	1.344034357e0
2.922178167e0	-2.677673936e-1	-5.889314143e-1	-1.111529383e0	1.286093759e0
2.932160167e0	-2.467612714e-1	-6.089799819e-1	-9.192404804e-1	1.129933982e0
2.942141167e0	-2.941430140e-1	-6.891401191e-1	-5.698667139e-1	9.413725554e-1
2.952122167e0	-3.825517452e-1	-8.213528278e-1	-1.618468362e-1	9.204133332e-1
2.962103167e0	-3.513434011e-1	-9.279861608e-1	1.922938728e-1	1.010731138e0
2.972084167e0	-1.328849924e-1	-9.955317342e-1	5.224627519e-1	1.132125957e0
2.982065167e0	1.194679713e-1	-1.016495464e0	7.644649744e-1	1.277474979e0
2.992046167e0	3.283661824e-1	-9.736307687e-1	8.358854976e-1	1.324570039e0
3.002027167e0	4.835425150e-1	-8.842589280e-1	8.126717591e-1	1.294666986e0
3.012008167e0	5.168371457e-1	-7.063890398e-1	7.203246358e-1	1.133566801e0
3.021989833e0	4.061353201e-1	-5.695769843e-1	6.462874836e-1	9.523924353e-1
3.031970833e0	1.355279338e-1	-5.058746396e-1	5.702514607e-1	7.742504118e-1
3.041951833e0	-2.411420971e-1	-5.194002727e-1	5.452148527e-1	7.906866572e-1
3.051932833e0	-5.809325695e-1	-5.126609181e-1	4.490000886e-1	8.954914554e-1
3.061914833e0	-7.260955453e-1	-4.921151179e-1	2.266141051e-1	9.059503203e-1
3.071895833e0	-7.180024141e-1	-5.315768069e-1	-1.088862652e-1	8.999764369e-1
3.081876833e0	-6.484772658e-1	-5.673917337e-1	-4.960660815e-1	9.942523327e-1
3.091857833e0	-2.001841056e-1	-6.087827115e-1	-7.456772858e-1	9.832215826e-1
3.101838833e0	4.073778534e-1	-6.233506107e-1	-9.095952058e-1	1.175536532e0
3.111819833e0	9.386441731e-1	-6.300471345e-1	-8.868594772e-1	1.436847942e0
3.121800833e0	1.243419764e0	-7.114111403e-1	-7.267399085e-1	1.606346605e0
3.131781833e0	1.298989947e0	-8.583633640e-1	-4.838231814e-1	1.630413266e0
3.141762833e0	1.153784287e0	-9.810657227e-1	-1.793083763e-1	1.525076925e0
3.151743833e0	7.918895853e-1	-9.755234393e-1	1.900099504e-1	1.270763108e0
3.161724833e0	3.172319144e-1	-9.754646017e-1	6.105343911e-1	1.193699929e0
3.171705833e0	-3.612585247e-2	-9.594330713e-1	1.058210962e0	1.428855254e0
3.181687833e0	-2.144133049e-1	-1.046641369e0	1.409935602e0	1.768996784e0
3.191668833e0	-1.544214571e-1	-1.081179556e0	1.510067416e0	1.863625182e0
3.201649833e0	1.828430182e-1	-9.671192363e-1	1.362331080e0	1.680683539e0
3.211630833e0	6.398999852e-1	-9.072856287e-1	1.147742651e0	1.596857037e0
3.221611833e0	9.533353025e-1	-9.696396786e-1	9.848757684e-1	1.678996600e0
3.231592833e0	1.021817307e0	-9.764154321e-1	8.703451860e-1	1.659818800e0
3.241573833e0	7.730159426e-1	-9.586594847e-1	8.270488930e-1	1.483439088e0
3.251554833e0	1.568737793e-1	-9.552879801e-1	8.613697100e-1	1.295817227e0
3.261535833e0	-6.170461428e-1	-9.276695341e-1	8.599809963e-1	1.407438816e0
3.271516833e0	-1.284582408e0	-8.626658915e-1	8.202944818e-1	1.751350176e0
3.281497833e0	-1.753792813e0	-7.673850739e-1	7.401124907e-1	2.052421882e0
3.291478833e0	-1.940059960e0	-6.198014239e-1	5.417068157e-1	2.107470695e0
3.301459833e0	-1.817735040e0	-3.995966712e-1	3.534472293e-1	1.894403103e0
3.311441833e0	-1.505558043e0	-1.728132892e-1	2.638415730e-1	1.538239848e0
3.321422833e0	-1.109923153e0	-8.661012769e-2	3.288906777e-1	1.160861662e0
3.331403833e0	-7.083726346e-1	-1.084556908e-1	4.310897747e-1	8.362970885e-1
3.341384833e0	-3.781429446e-1	-1.500539524e-1	4.556328776e-1	6.108269758e-1
3.351365833e0	-1.547594261e-1	-1.912606698e-1	4.102932751e-1	4.784053672e-1
3.361346833e0	5.557895422e-2	-2.596242687e-1	2.529178047e-1	3.666895103e-1
3.371327833e0	1.999718517e-1	-3.131672955e-1	5.716091841e-2	3.759386480e-1
3.381308833e0	2.374279457e-1	-3.345265896e-1	-1.238706324e-1	4.285137129e-1
3.391289833e0	2.072580671e-1	-3.704717631e-1	-2.487808996e-1	4.920337079e-1
3.401270833e0	1.435889053e-1	-4.488951311e-1	-2.749641466e-1	5.456463088e-1
3.411251833e0	6.858608544e-2	-5.240759987e-1	-2.625370592e-1	5.901571070e-1
3.421232833e0	2.017815650e-2	-5.358873743e-1	-2.527108133e-1	5.928281294e-1
3.431214833e0	1.703878641e-2	-5.032944095e-1	-2.467063075e-1	5.607669615e-1
3.441195833e0	3.042832553e-2	-4.158846751e-1	-2.106284022e-1	4.671726338e-1
3.451176833e0	5.841309965e-2	-2.777333879e-1	-1.420294529e-1	3.173646018e-1
3.461157833e0	4.161814213e-2	-1.661629584e-1	-6.671497643e-2	1.838289602e-1
3.471138833e0	-9.876941264e-2	-3.612475611e-2	-4.363484681e-3	1.052588945e-1
3.481119833e0	-2.765048879e-1	8.656013399e-2	3.964996934e-2	2.924375658e-1
3.491100833e0	-4.446912754e-1	1.502663525e-1	5.414317042e-2	4.725058624e-1
3.501081833e0	-5.210260910e-1	1.775466102e-1	8.057580113e-2	5.563123637e-1
3.511062833e0	-5.081967151e-1	1.896789980e-1	7.721891463e-2	5.479094673e-1
3.521043833e0	-4.022744036e-1	1.236919268e-1	2.379962951e-2	4.215338787e-1
3.531024833e0	-1.883891022e-1	9.400334716e-2	-1.116233468e-2	2.108356726e-1
3.541005833e0	1.103708732e-1	1.466089922e-1	-1.399694788e-1	2.307972731e-1
3.550986833e0	4.525540262e-1	2.772015106e-1	-2.697662643e-1	5.953315559e-1
3.560968833e0	7.281859249e-1	3.467979949e-1	-2.203976378e-1	8.361212288e-1
3.570949833e0	7.798753113e-1	2.788410699e-1	-1.089233950e-1	8.353574979e-1
3.580930833e0	6.510634893e-1	1.598285966e-1	4.249142379e-2	6.717398072e-1
3.590911833e0	4.690110147e-1	8.059334278e-2	1.751369727e-1	5.070893196e-1
3.600892833e0	3.530665755e-1	-6.394807398e-3	2.634018624e-1	4.405422130e-1
3.610873833e0	3.230118871e-1	-9.798266977e-2	3.061853546e-1	4.557266221e-1
3.620854833e0	3.053848708e-1	-1.728314155e-1	2.819135624e-1	4.501176226e-1
3.630835833e0	3.435426307e-1	-1.835388368e-1	1.620830637e-1	4.218755305e-1
3.640816833e0	4.905930877e-1	-1.744826692e-1	3.100252211e-2	5.216195318e-1
3.650797833e0	8.152965742e-1	-1.145502437e-1	2.023925990e-2	8.235532101e-1
3.660778833e0	1.119046564e0	-1.475317559e-1	1.351358780e-1	1.136790454e0
3.670759833e0	1.278507151e0	-2.101735619e-1	2.797895613e-1	1.325532218e0
3.680741833e0	1.483295354e0	-1.248439745e-1	4.833317229e-1	1.565043348e0
3.690722833e0	1.502294712e0	-6.378267087e-2	6.004713330e-1	1.619111933e0
3.700703833e0	1.246252740e0	-1.379065812e-3	5.554352009e-1	1.364425174e0
3.710684833e0	9.097156584e-1	5.845074110e-2	4.196116903e-1	1.003530288e0
3.720665833e0	5.284748590e-1	1.282443497e-1	2.287828374e-1	5.899778610e-1
3.730646833e0	4.425640583e-2	2.266874877e-1	-2.913959920e-2	2.327981159e-1
3.740627833e0	-3.523836207e-1	2.709997344e-1	-2.582387710e-1	5.141034283e-1
3.750608833e0	-5.818546754e-1	1.536831730e-1	-4.054766312e-1	7.256615461e-1
3.760589833e0	-5.100982296e-1	-5.507675149e-2	-5.249068880e-1	7.340033335e-1
3.770570833e0	-1.196849030e-1	-2.056978107e-1	-6.847642091e-1	7.249400578e-1
3.780551833e0	5.216476500e-1	-2.307779074e-1	-7.368859971e-1	9.318667748e-1
3.790532833e0	1.229211615e0	-1.716474275e-1	-5.560623148e-1	1.360010783e0
3.800513833e0	1.643293301e0	-1.453986186e-1	-2.085292518e-1	1.662840365e0
3.810495833e0	1.660348459e0	-1.309650591e-1	2.533119071e-1	1.684658949e0
3.820476833e0	1.185087941e0	-1.965333965e-1	7.641077095e-1	1.423699194e0
3.830457833e0	4.286856920e-1	-2.717256662e-1	1.188674623e0	1.292498982e0
3.840438833e0	-3.000124490e-1	-2.813825621e-1	1.446868370e0	1.504198024e0
3.850419833e0	-8.702504611e-1	-2.344987465e-1	1.527677475e0	1.773731658e0
3.860400833e0	-1.234630229e0	-1.310343486e-1	1.458777979e0	1.915597817e0
3.870381833e0	-1.404097742e0	-1.270223547e-2	1.242592675e0	1.875016899e0
3.880362833e0	-1.416317838e0	1.376673935e-1	8.976087061e-1	1.682441654e0
3.890343833e0	-1.243474143e0	2.396680140e-1	5.092082834e-1	1.364903578e0
3.900324833e0	-9.665079099e-1	2.927066089e-1	1.626294860e-1	1.022870006e0
3.910305833e0	-6.244288373e-1	2.935266809e-1	-9.307510167e-2	6.962271611e-1
3.920286833e0	-3.305372536e-1	2.834060642e-1	-3.302548331e-1	5.464815899e-1
3.930268833e0	-1.006703424e-1	3.047565509e-1	-5.693694082e-1	6.535997217e-1
3.940249833e0	9.294909418e-2	3.680597135e-1	-7.415336564e-1	8.330544103e-1
3.950230833e0	2.537586343e-1	3.796904102e-1	-7.705931488e-1	8.957522275e-1
3.960211833e0	3.238515472e-1	3.358994427e-1	-6.782530421e-1	8.232468946e-1
3.970192833e0	2.487218428e-1	3.123538747e-1	-4.655342603e-1	6.133103991e-1
3.980173833e0	7.540160000e-2	3.204899830e-1	-1.777720204e-1	3.741685739e-1
3.990154833e0	-1.569725972e-1	3.483197693e-1	9.141215354e-2	3.928399672e-1
4.000135833e0	-3.016081542e-1	3.824149203e-1	2.908729586e-1	5.672880468e-1
4.010116833e0	-4.012569880e-1	4.125997093e-1	4.156241816e-1	7.099219330e-1
4.020097542e0	-4.492637980e-1	4.381456098e-1	4.672480792e-1	7.823875658e-1
4.030078542e0	-4.282161605e-1	4.234992117e-1	4.883828402e-1	7.753956803e-1
4.040059542e0	-5.038990116e-1	3.411967278e-1	4.377488762e-1	7.496355778e-1
4.050040542e0	-5.987513745e-1	2.810139683e-1	2.675609869e-1	7.134850668e-1
4.060022542e0	-6.923617887e-1	2.775983173e-1	-8.872565031e-3	7.459922216e-1
4.070003542e0	-7.350979185e-1	2.906458308e-1	-3.515796286e-1	8.651313103e-1
4.079984542e0	-7.362702852e-1	2.369937900e-1	-6.604318982e-1	1.017069458e0
4.089965542e0	-6.840505564e-1	1.392678130e-1	-8.546676314e-1	1.103529541e0
4.099946542e0	-6.286587131e-1	1.325104782e-1	-9.766405499e-1	1.169015641e0
4.109927542e0	-5.598182738e-1	1.797779077e-1	-9.965491498e-1	1.157076836e0
4.119908542e0	-5.311943990e-1	1.982927872e-1	-9.157303968e-1	1.077056024e0
4.129889542e0	-5.007672429e-1	1.934852065e-1	-7.298772320e-1	9.060491877e-1
4.139870542e0	-4.313765806e-1	1.114993127e-1	-4.790129694e-1	6.541951360e-1
4.149851542e0	-3.384356725e-1	2.997370452e-2	-2.009091604e-1	3.947171368e-1
4.159832542e0	-1.949835920e-1	-8.203617979e-2	3.286047488e-2	2.140755632e-1
4.169813542e0	5.055151820e-2	-1.878865706e-1	1.968026608e-1	2.767455631e-1
4.179794542e0	3.533045572e-1	-2.381448144e-1	2.887056881e-1	5.146727476e-1
4.189776542e0	6.858170003e-1	-2.589135762e-1	3.356421652e-1	8.062486347e-1
4.199757542e0	9.733666939e-1	-2.797217702e-1	4.004836938e-1	1.089070328e0
4.209738542e0	1.100351261e0	-2.827883059e-1	5.079961556e-1	1.244508826e0
4.219719542e0	9.782929730e-1	-3.094369912e-1	6.742400980e-1	1.227765492e0
4.229700542e0	7.974210513e-1	-3.031410018e-1	7.972614223e-1	1.167647453e0
4.239681542e0	6.400409031e-1	-2.276417533e-1	8.487777311e-1	1.087150754e0
4.249662542e0	4.866824698e-1	-8.179377615e-2	7.729586399e-1	9.170687582e-1
4.259643542e0	3.445588768e-1	4.207272660e-2	5.907953605e-1	6.852226586e-1
4.269624542e0	2.203189927e-1	1.253005689e-1	3.031652677e-1	3.951580325e-1
4.279605542e0	1.502266645e-1	2.881025478e-1	5.446096659e-3	3.249627498e-1
4.289586542e0	8.710421741e-2	4.566291701e-1	-2.332775921e-1	5.201113137e-1
4.299567542e0	5.542166412e-2	5.908002575e-1	-4.126839092e-1	7.227893982e-1
4.309549542e0	-2.284565628e-2	6.637648112e-1	-4.988394159e-1	8.306301291e-1
4.319530542e0	-1.358126932e-1	5.787749469e-1	-4.408800602e-1	7.401356324e-1
4.329511542e0	-1.246556211e-1	4.083783120e-1	-3.009690535e-1	5.223928031e-1
4.339492542e0	-2.496176362e-2	2.016672519e-1	-1.495127195e-1	2.522832207e-1
4.349473542e0	1.968137705e-1	3.167846024e-2	-2.481675267e-2	2.008856797e-1
4.359454542e0	5.061589605e-1	-1.650529011e-1	8.723665684e-2	5.394901183e-1
4.369435542e0	8.361331272e-1	-3.475134748e-1	2.104927468e-1	9.296189639e-1
4.379416542e0	1.132696304e0	-4.049165045e-1	2.960465750e-1	1.238790485e0
4.389397542e0	1.245523008e0	-3.158817923e-1	3.471141100e-1	1.331013552e0
4.399378542e0	1.110685045e0	-1.878187429e-1	4.451955977e-1	1.211237495e0
4.409359542e0	7.059571499e-1	-6.076020855e-2	5.721579453e-1	9.107315822e-1
4.419340542e0	5.691972077e-2	9.658226162e-2	6.592232788e-1	6.686877591e-1
4.429321542e0	-5.395319438e-1	2.747372746e-1	6.771549350e-1	9.083579110e-1
4.439303542e0	-9.445697415e-1	4.579229397e-1	6.563055182e-1	1.237999333e0
4.449284542e0	-1.123726090e0	5.269667890e-1	6.010697955e-1	1.379035613e0
4.459265542e0	-1.048770048e0	5.219689545e-1	5.010350454e-1	1.274129632e0
4.469246542e0	-7.886549056e-1	4.516772363e-1	3.372551197e-1	9.693966688e-1
4.479227542e0	-3.997472370e-1	3.431561297e-1	1.514534104e-1	5.481716140e-1
4.489208542e0	-1.745218456e-2	2.746872444e-1	1.241977841e-2	2.755211641e-1
4.499189542e0	2.466530979e-1	1.862791345e-1	-4.226367474e-2	3.119677625e-1
4.509170542e0	3.578191924e-1	1.159435621e-1	3.139954805e-2	3.774432615e-1
4.519151542e0	3.048206145e-1	4.306152731e-2	2.666342032e-1	4.072636744e-1
4.529132542e0	8.838651180e-3	-5.839497328e-2	5.590826941e-1	5.621935196e-1
4.539113542e0	-3.852110589e-1	-1.371160742e-1	7.334954891e-1	8.397642587e-1
4.549094542e0	-6.854369313e-1	-1.466920227e-1	7.298623216e-1	1.011949280e0
4.559075542e0	-8.604242152e-1	-1.367357128e-1	6.271638724e-1	1.073480791e0
4.569057542e0	-9.046046072e-1	-1.127293842e-1	4.615216085e-1	1.021772775e0
4.579038542e0	-8.807146382e-1	-1.236575013e-1	2.687731147e-1	9.290793501e-1
4.589019542e0	-8.313460118e-1	-2.122787789e-1	6.679625273e-2	8.606161808e-1
4.599000542e0	-6.817297965e-1	-2.821776007e-1	-1.455187789e-1	7.520341939e-1
4.608981542e0	-5.266388333e-1	-2.883475462e-1	-4.136776435e-1	7.291241053e-1
4.618962542e0	-3.644873571e-1	-2.006933981e-1	-6.784442461e-1	7.958740281e-1
4.628943542e0	-2.637211204e-1	-7.987961702e-2	-8.917231911e-1	9.333272910e-1
4.638924542e0	-2.492100853e-1	7.686749697e-3	-1.024255596e0	1.054165205e0
4.648905542e0	-2.829865265e-1	3.985052884e-2	-1.111669132e0	1.147814313e0
4.658886542e0	-4.257170606e-1	3.029084288e-2	-1.128914325e0	1.206896890e0
4.668867542e0	-5.733405447e-1	4.811673760e-3	-1.078721241e0	1.221630897e0
4.678848542e0	-5.897279513e-1	-4.391346663e-2	-9.822176242e-1	1.146498544e0
4.688829542e0	-4.309257603e-1	-6.511225462e-2	-8.157707834e-1	9.248884190e-1
4.698811542e0	-1.283949155e-1	-4.320452828e-2	-5.560096899e-1	5.722749871e-1
4.708792542e0	2.341400564e-1	-6.280874401e-2	-2.297148836e-1	3.339692082e-1
4.718773542e0	4.582240713e-1	-3.617116839e-2	5.193496943e-2	4.625742037e-1
4.728754542e0	5.413621223e-1	5.879609227e-2	2.691987920e-1	6.074519878e-1
4.738735542e0	5.406867689e-1	2.070071850e-1	3.433350545e-1	6.731070616e-1
4.748716542e0	5.353424138e-1	3.435671890e-1	2.815972281e-1	6.956485551e-1
4.758697542e0	5.372842741e-1	4.368279397e-1	1.642570585e-1	7.116694608e-1
4.768678542e0	4.829192019e-1	4.227677250e-1	6.008364916e-2	6.446344311e-1
4.778659542e0	4.298177129e-1	3.020464030e-1	-7.812640250e-2	5.311111283e-1
4.788640542e0	4.553343773e-1	2.163996041e-1	-2.600800592e-1	5.672740263e-1
4.798621542e0	5.835567999e-1	1.592296225e-1	-4.302404666e-1	7.422933857e-1
4.808602542e0	7.858529198e-1	8.552839279e-2	-5.242063916e-1	9.485105474e-1
4.818584542e0	1.076975262e0	2.869608790e-2	-5.563046819e-1	1.212507353e0
4.828565542e0	1.467216096e0	1.085564822e-1	-5.642112869e-1	1.575703639e0
4.838546542e0	1.771152027e0	2.722583476e-1	-5.340039861e-1	1.869830037e0
4.848527542e0	1.771038591e0	3.610465631e-1	-3.142001331e-1	1.834571894e0
4.858508542e0	1.452523212e0	2.614760819e-1	1.339176106e-1	1.481933653e0
4.868489542e0	8.829529524e-1	-8.148445845e-2	6.156322861e-1	1.079466880e0
4.878470542e0	3.751731437e-1	-4.191851360e-1	1.027681188e0	1.171579997e0
4.888451542e0	-3.460966945e-3	-6.235079008e-1	1.219030735e0	1.369237019e0
4.898432542e0	-1.815730029e-1	-6.032046139e-1	1.313743934e0	1.456965232e0
4.908413542e0	-1.099878806e-1	-3.890877628e-1	1.334833087e0	1.394727927e0
4.918394542e0	1.049271154e-1	-1.487435183e-1	1.255970228e0	1.269092411e0
4.928375542e0	2.994499469e-1	-5.755502075e-2	1.122133893e0	1.162827298e0
4.938356542e0	2.735304093e-1	-2.434669501e-1	9.544983137e-1	1.022331684e0
4.948337542e0	8.906537354e-2	-5.118176034e-1	7.464643210e-1	9.094497691e-1
4.958319542e0	-1.053317428e-1	-6.952690244e-1	4.721650028e-1	8.470145112e-1
4.968300542e0	-2.558010668e-1	-7.631891119e-1	1.688579401e-1	8.224383322e-1
4.978281542e0	-3.805718780e-1	-6.976117113e-1	-4.517968118e-2	7.959511654e-1
4.988262542e0	-5.495932478e-1	-5.696948423e-1	-9.157382905e-2	7.968630481e-1
4.998243542e0	-7.465192848e-1	-4.548350251e-1	-8.214168549e-3	8.742044470e-1
5.008224542e0	-9.220445126e-1	-3.582501687e-1	8.648645908e-2	9.929698758e-1
5.018205542e0	-1.041830572e0	-2.297338870e-1	1.840054446e-1	1.082611012e0
5.028186708e0	-1.188952366e0	-1.439321369e-1	2.633562541e-1	1.226246592e0
5.038167708e0	-1.291088605e0	-1.017309908e-1	3.313108402e-1	1.336796863e0
5.048148708e0	-1.204528763e0	-1.168147972e-1	3.063601863e-1	1.248355639e0
5.058129708e0	-9.813990140e-1	-1.216273481e-1	1.378223813e-1	9.984649444e-1
5.068110708e0	-5.612216055e-1	-5.718229730e-2	-9.956814229e-2	5.728466816e-1
5.078091708e0	-3.260056615e-2	7.159038484e-3	-3.375293541e-1	3.391756383e-1
5.088073708e0	3.553540063e-1	4.351848722e-2	-5.459562796e-1	6.528695029e-1
5.098054708e0	5.345577174e-1	6.127646288e-2	-6.752168754e-1	8.633797467e-1
5.108035708e0	4.709347486e-1	2.541492283e-3	-7.284788704e-1	8.674488234e-1
5.118016708e0	2.818363792e-1	-5.634965379e-2	-7.123811933e-1	7.681757564e-1
5.127997708e0	9.815720916e-2	-4.199470282e-3	-6.629672509e-1	6.702074672e-1
5.137978708e0	-1.285884583e-1	6.228746474e-2	-5.484454393e-1	5.667513739e-1
5.147959708e0	-3.501002830e-1	9.096158903e-2	-3.966379800e-1	5.368108662e-1
5.157940708e0	-4.588520622e-1	6.900942385e-2	-2.489884758e-1	5.265954583e-1
5.167921708e0	-4.960011774e-1	8.880634189e-2	-1.696727496e-1	5.316884204e-1
5.177902708e0	-4.995744109e-1	1.276418306e-1	-1.778682071e-1	5.454393899e-1
5.187883708e0	-5.327567750e-1	1.497699970e-1	-2.275847429e-1	5.983775134e-1
5.197864708e0	-6.229489070e-1	1.620576283e-1	-3.185393518e-1	7.181889266e-1
5.207845708e0	-6.710738307e-1	1.537200470e-1	-3.944493672e-1	7.934483237e-1
5.217827708e0	-6.788822025e-1	8.096957456e-2	-4.552592406e-1	8.214000810e-1
5.227808708e0	-7.260557842e-1	-3.051661849e-3	-5.486752349e-1	9.100608924e-1
5.237789708e0	-6.881202185e-1	-4.359245449e-2	-6.258327538e-1	9.311693578e-1
5.247770708e0	-5.461767197e-1	-7.053284280e-2	-6.752317858e-1	8.713333780e-1
5.257751708e0	-3.650872815e-1	-1.416175166e-1	-6.959847236e-1	7.985856119e-1
5.267732708e0	-1.757532692e-1	-2.358413038e-1	-6.883459210e-1	7.485522288e-1
5.277713708e0	5.135667980e-2	-3.049495456e-1	-6.710884488e-1	7.389123358e-1
5.287694708e0	2.882320637e-1	-3.672732630e-1	-5.888064301e-1	7.514388760e-1
5.297675708e0	4.696238029e-1	-3.745542160e-1	-4.915555394e-1	7.761856899e-1
5.307656708e0	6.160866147e-1	-3.190135976e-1	-3.766884497e-1	7.894470092e-1
5.317637708e0	7.079516351e-1	-2.495834300e-1	-1.955525261e-1	7.757114133e-1
5.327618708e0	6.981733364e-1	-1.717333084e-1	-1.366494298e-2	7.191140852e-1
5.337599708e0	6.487971085e-1	-8.054221619e-2	1.801880899e-1	6.781537321e-1
5.347581708e0	5.575758666e-1	-4.763934899e-2	3.799453488e-1	6.764013769e-1
5.357562708e0	4.605957019e-1	-8.325733423e-2	5.516508830e-1	7.234631166e-1
5.367543708e0	3.824038106e-1	-1.472902294e-1	6.515356520e-1	7.696920110e-1
5.377524708e0	3.793240821e-1	-2.070461421e-1	6.032826743e-1	7.420949059e-1
5.387505708e0	4.626527524e-1	-1.360088673e-1	4.219075996e-1	6.407433214e-1
5.397486708e0	5.614034539e-1	7.947535515e-2	2.074089253e-1	6.037455031e-1
5.407467708e0	6.365699959e-1	3.483297461e-1	8.322692871e-2	7.303983114e-1
5.417448708e0	6.147429246e-1	6.428189152e-1	1.674022758e-1	9.050682533e-1
5.427429708e0	5.089574379e-1	9.893816328e-1	3.645130849e-1	1.170804628e0
5.437410708e0	2.911124021e-1	1.189345664e0	5.994834459e-1	1.363330459e0
5.447391708e0	3.010497451e-2	1.126103203e0	8.463596150e-1	1.409020699e0
5.457372708e0	-1.158052754e-1	8.659586048e-1	9.893506426e-1	1.319890094e0
5.467353708e0	-4.961362481e-3	5.292665720e-1	9.653940153e-1	1.100969266e0
5.477335708e0	3.923838383e-1	2.913503472e-1	8.358773115e-1	9.682669990e-1
5.487316708e0	8.603201348e-1	1.165866462e-1	6.360072014e-1	1.076219467e0
5.497297708e0	1.187932611e0	-8.083486933e-2	4.099164221e-1	1.259265515e0
5.507278708e0	1.458218400e0	-2.371157044e-1	1.659650302e-1	1.486663766e0
5.517259708e0	1.603971945e0	-2.266415870e-1	-1.428357840e-1	1.626190171e0
5.527240708e0	1.559443059e0	-2.133912116e-2	-4.266572928e-1	1.616896551e0
5.537221708e0	1.212807836e0	2.447667861e-1	-5.272025049e-1	1.344900036e0
5.547202708e0	5.423596573e-1	3.854344225e-1	-3.519246143e-1	7.527048731e-1
5.557183708e0	-2.587585884e-1	4.501119366e-1	1.786207438e-2	5.194957327e-1
5.567164708e0	-9.796015799e-1	5.662555100e-1	4.170854008e-1	1.205912430e0
5.577145708e0	-1.516043855e0	7.958803099e-1	7.261312133e-1	1.859860472e0
5.587126708e0	-1.843811867e0	9.348434830e-1	9.493679667e-1	2.274834956e0
5.597107708e0	-2.046271709e0	9.337515154e-1	1.176048145e0	2.538150713e0
5.607089708e0	-1.973276823e0	8.444654095e-1	1.250234986e0	2.483954663e0
5.617070708e0	-1.645998808e0	7.474729657e-1	1.153537242e0	2.144452396e0
5.627051708e0	-1.110492087e0	6.653646094e-1	9.270140612e-1	1.592249292e0
5.637032708e0	-5.271299994e-1	5.796564147e-1	6.493160489e-1	1.017584850e0
5.647013708e0	-7.214236200e-2	5.137141478e-1	4.068021950e-1	6.592380237e-1
5.656994708e0	2.520728821e-1	4.288064370e-1	1.602815366e-1	5.225953207e-1
5.666975708e0	3.556674170e-1	3.275268146e-1	-4.889617145e-2	4.859670374e-1
5.676956708e0	2.501204967e-1	2.289535761e-1	-1.864326239e-1	3.869588171e-1
5.686937708e0	-2.336547375e-3	6.846534044e-2	-2.746764636e-1	2.830903071e-1
5.696918708e0	-2.126690805e-1	-9.364198923e-2	-3.161753225e-1	3.923822046e-1
5.706899708e0	-2.930916846e-1	-2.092996225e-1	-3.702392632e-1	5.165134844e-1
5.716880708e0	-2.734274983e-1	-2.233607143e-1	-4.899247509e-1	6.038864687e-1
5.726861708e0	-1.438783425e-1	-1.412953350e-1	-5.542581564e-1	5.898028934e-1
5.736843708e0	-3.371387601e-2	-7.695988297e-2	-5.603433537e-1	5.666075565e-1
5.746824708e0	-8.712351322e-3	-4.932915777e-2	-4.934792733e-1	4.960151853e-1
5.756805708e0	-5.976439118e-2	-6.720438838e-2	-3.942362362e-1	4.043642198e-1
5.766786708e0	-1.057597589e-1	-1.022794962e-2	-3.533285308e-1	3.689590604e-1
5.776767708e0	-1.229529119e-1	7.819479665e-2	-2.943517596e-1	3.284429983e-1
5.786748708e0	-1.862501907e-1	2.107386222e-1	-2.111961669e-1	3.517153982e-1
5.796729708e0	-2.878204197e-1	2.824634930e-1	-6.998532414e-2	4.092971591e-1
5.806710708e0	-3.976270366e-1	2.738400194e-1	1.022987920e-1	4.935186514e-1
5.816691708e0	-4.911550051e-1	2.454175812e-1	2.608741111e-1	6.078801938e-1
5.826672708e0	-5.532039034e-1	2.046458235e-1	3.728161311e-1	6.977867436e-1
5.836653708e0	-4.516939008e-1	1.245608962e-1	4.433551866e-1	6.450632669e-1
5.846634708e0	-2.056927675e-1	8.779153934e-2	4.361721745e-1	4.901663338e-1
5.856615708e0	5.786404610e-2	7.472741604e-2	3.751000535e-1	3.868235834e-1
5.866597708e0	2.638982910e-1	4.714783570e-2	3.757844701e-1	4.616050199e-1
5.876578708e0	3.871646136e-1	2.481790384e-2	4.043159589e-1	5.603425390e-1
5.886559708e0	4.375179112e-1	1.401109815e-2	5.040434378e-1	6.675912078e-1
5.896540708e0	4.092214805e-1	-2.927147219e-2	6.843449637e-1	7.979016660e-1
5.906521708e0	3.760806316e-1	-1.491765229e-1	8.185502574e-1	9.130798433e-1
5.916502708e0	4.200990558e-1	-2.559609881e-1	8.781927341e-1	1.006589153e0
5.926483708e0	5.825668663e-1	-3.060134465e-1	8.108298862e-1	1.044257386e0
5.936464708e0	7.582341814e-1	-2.635664615e-1	6.023854190e-1	1.003620718e0
5.946445708e0	9.138847232e-1	-8.735096991e-2	2.828602266e-1	9.606380104e-1
5.956426708e0	1.016040843e0	2.729796016e-1	3.729529560e-2	1.052733488e0
5.966407708e0	9.685427409e-1	6.251579851e-1	-4.054517806e-2	1.153490988e0
5.976388708e0	6.357274121e-1	7.366155633e-1	7.027534604e-2	9.755462341e-1
5.986369708e0	9.459859371e-2	5.905450997e-1	3.854899710e-1	7.115440439e-1
5.996350708e0	-3.667630935e-1	2.950031394e-1	6.892639339e-1	8.346417133e-1
6.006332708e0	-4.952147269e-1	-2.448026368e-2	8.756991890e-1	1.006322999e0
6.016313708e0	-1.289194107e-1	-2.910419431e-1	9.865281916e-1	1.036611547e0
6.026294833e0	4.455554938e-1	-5.107373303e-1	9.292792726e-1	1.150187935e0
6.036275833e0	1.018487318e0	-6.278775251e-1	7.194390750e-1	1.396115750e0
6.046256833e0	1.450898856e0	-6.726914629e-1	4.782233030e-1	1.669227013e0
6.056237833e0	1.579582039e0	-6.561798030e-1	2.712029251e-1	1.731820539e0
6.066218833e0	1.298167244e0	-6.114813477e-1	1.827403995e-1	1.446562023e0
6.076199833e0	5.249057186e-1	-5.400388974e-1	2.079193872e-1	7.812800366e-1
6.086180833e0	-4.417711759e-1	-4.936760321e-1	3.069308746e-1	7.301262619e-1
6.096161833e0	-1.279203554e0	-4.926969159e-1	4.661920720e-1	1.447911265e0
6.106142833e0	-1.855743111e0	-4.945911214e-1	5.792479867e-1	2.005973853e0
6.116123833e0	-2.082365987e0	-3.646379229e-1	5.572700572e-1	2.186265957e0
6.126104833e0	-1.944349478e0	-1.815417569e-1	4.049474582e-1	1.994350708e0
6.136086833e0	-1.440937539e0	-1.084155643e-1	1.634600830e-1	1.454226298e0
6.146067833e0	-7.213049215e-1	-1.197682441e-1	-1.206786373e-1	7.410725711e-1
6.156048833e0	-6.867905617e-2	-1.511529000e-1	-4.474505764e-1	4.772588714e-1
6.166029833e0	4.199809420e-1	-1.972915246e-1	-6.967606491e-1	8.371280305e-1
6.176010833e0	6.993012643e-1	-2.681334293e-1	-8.309875774e-1	1.118685902e0
6.185991833e0	8.155801642e-1	-3.476736885e-1	-8.936820084e-1	1.258854849e0
6.195972833e0	6.910496736e-1	-3.960345474e-1	-8.405202931e-1	1.157958280e0
6.205953833e0	4.327003902e-1	-4.431163278e-1	-7.948061764e-1	1.007620249e0
6.215934833e0	1.277066982e-1	-4.900738549e-1	-7.595562369e-1	9.129113106e-1
6.225915833e0	-1.442496407e-1	-5.085838008e-1	-7.413567781e-1	9.105357290e-1
6.235896833e0	-3.203812248e-1	-4.520806941e-1	-7.687249634e-1	9.476070665e-1
6.245877833e0	-3.599031401e-1	-3.237974605e-1	-8.467025542e-1	9.753359836e-1
6.255858833e0	-2.438136899e-1	-2.060968101e-1	-8.880903161e-1	9.437295269e-1
6.265840833e0	-1.233826822e-1	-1.043280865e-1	-8.856493959e-1	9.002680092e-1
6.275821833e0	-1.111918223e-1	-4.675550580e-2	-8.817870176e-1	8.899989006e-1
6.285802833e0	-1.586595190e-1	-1.521675747e-2	-8.687933350e-1	8.832928459e-1
6.295783833e0	-2.584451777e-1	2.799146187e-2	-8.382699922e-1	8.776525574e-1
6.305764833e0	-4.121176064e-1	2.681006849e-2	-7.649450308e-1	8.693104172e-1
6.315745833e0	-5.119383484e-1	-6.437057186e-2	-6.960449499e-1	8.664311948e-1
6.325726833e0	-4.745226002e-1	-1.681981184e-1	-6.369994739e-1	8.119301909e-1
6.335707833e0	-3.082605314e-1	-2.199061793e-1	-6.179314113e-1	7.247223689e-1
6.345688833e0	-8.455483139e-2	-1.968049997e-1	-5.754315090e-1	6.140058216e-1
6.355669833e0	1.403945714e-1	-1.996821587e-1	-4.806881967e-1	5.391147769e-1
6.365650833e0	3.436712694e-1	-2.257929002e-1	-2.760391572e-1	4.952675959e-1
6.375631833e0	4.508074629e-1	-2.189869970e-1	-2.590667367e-2	5.018504052e-1
6.385612833e0	3.976235282e-1	-2.017444351e-1	2.420571864e-1	5.073430484e-1
6.395593833e0	3.162630308e-1	-1.567387086e-1	5.367738122e-1	6.424293368e-1
6.405575833e0	2.559349680e-1	-1.804228556e-1	8.062690580e-1	8.649421417e-1
6.415556833e0	1.838107324e-1	-2.231727263e-1	9.176514995e-1	9.621209517e-1
6.425537833e0	2.283828878e-1	-2.285892946e-1	8.890831733e-1	9.459813413e-1
6.435518833e0	3.759432220e-1	-2.545629188e-1	7.235976148e-1	8.542418240e-1
6.445499833e0	5.799391276e-1	-3.716993495e-1	4.197759971e-1	8.066608245e-1
6.455480833e0	7.619284523e-1	-5.069308660e-1	-1.515188992e-2	9.152832616e-1
6.465461833e0	8.517258972e-1	-4.656717064e-1	-5.003781107e-1	1.092092210e0
6.475442833e0	7.964773107e-1	-2.817293751e-1	-9.467729723e-1	1.268907644e0
6.485423833e0	6.312876213e-1	5.256500691e-2	-1.118949500e0	1.285820798e0
6.495404833e0	3.717291337e-1	4.525346573e-1	-9.492729494e-1	1.115387510e0
6.505385833e0	6.045962512e-2	8.012473961e-1	-4.266236714e-1	9.097584916e-1
6.515366833e0	-3.274651265e-1	9.782525542e-1	2.367543465e-1	1.058425288e0
6.525347833e0	-6.303701931e-1	1.025527585e0	8.486616638e-1	1.472854381e0
6.535329833e0	-6.658569449e-1	1.036614198e0	1.276770820e0	1.774282445e0
6.545310833e0	-3.780195683e-1	9.706538051e-1	1.457795939e0	1.791713315e0
6.555291833e0	1.875757545e-1	8.754003232e-1	1.390534248e0	1.653812530e0
6.565272833e0	8.893246633e-1	7.242038979e-1	1.180557226e0	1.645929830e0
6.575253833e0	1.360324901e0	4.568045866e-1	8.566705951e-1	1.671238695e0
6.585234833e0	1.594393036e0	2.018347746e-1	4.704038215e-1	1.674546561e0
6.595215833e0	1.695421228e0	8.817155354e-2	1.425978023e-1	1.703690552e0
6.605196833e0	1.553515152e0	2.884782314e-2	-9.459157705e-2	1.556659593e0
6.615177833e0	1.032025961e0	3.885737926e-2	-2.380764019e-1	1.059843316e0
6.625158833e0	3.135475838e-1	1.222628673e-1	-2.534247583e-1	4.212889794e-1
6.635139833e0	-4.443790340e-1	2.588877388e-1	-1.615825421e-1	5.390774574e-1
6.645120833e0	-1.175299702e0	4.373781627e-1	-3.344958186e-2	1.254491100e0
6.655101833e0	-1.748599316e0	6.099259883e-1	5.242496610e-2	1.852662316e0
6.665082833e0	-2.096429125e0	7.362067699e-1	8.369646013e-2	2.223515366e0
6.675064833e0	-2.183336291e0	7.873246640e-1	2.468694448e-2	2.321087446e0
6.685045833e0	-2.031387622e0	7.219162479e-1	-9.073358417e-2	2.157760719e0
6.695026833e0	-1.674289976e0	6.278394451e-1	-2.792410925e-1	1.809807968e0
6.705007833e0	-1.209841543e0	5.233217078e-1	-4.906012738e-1	1.406510498e0
6.714988833e0	-7.479787499e-1	4.621822708e-1	-6.953780749e-1	1.120997470e0
6.724969833e0	-4.277039444e-1	4.137100956e-1	-8.252842033e-1	1.017438314e0
6.734950833e0	-3.112309170e-1	3.281457424e-1	-8.866524857e-1	9.953376022e-1
6.744931833e0	-4.218900579e-1	1.804862248e-1	-8.696894208e-1	9.833240498e-1
6.754912833e0	-6.720994323e-1	4.328014009e-2	-9.032115081e-1	1.126668472e0
6.764893833e0	-9.008354920e-1	-3.931909002e-2	-9.943438724e-1	1.342300380e0
6.774874833e0	-1.017956976e0	-4.547671974e-3	-1.134348142e0	1.524140018e0
6.784855833e0	-9.442855668e-1	9.018979311e-2	-1.286041288e0	1.598033675e0
6.794836833e0	-7.345412636e-1	2.005115497e-1	-1.350112739e0	1.550019405e0
6.804817833e0	-5.332543731e-1	2.519408081e-1	-1.358664876e0	1.481149771e0
6.814799833e0	-3.517228854e-1	3.126894684e-1	-1.345147575e0	1.425098485e0
6.824780833e0	-1.749206257e-1	3.920700621e-1	-1.354335598e0	1.420753698e0
6.834761833e0	2.405427575e-2	4.280764121e-1	-1.347924126e0	1.414470739e0
6.844742833e0	1.611989647e-1	4.710095930e-1	-1.342886165e0	1.432193560e0
6.854723833e0	3.616958964e-1	5.657923740e-1	-1.380352199e0	1.535030008e0
6.864704833e0	5.975807619e-1	7.195411089e-1	-1.412759515e0	1.694323352e0
6.874685833e0	7.720341951e-1	8.718163455e-1	-1.403752756e0	1.823903051e0
6.884666833e0	9.709786910e-1	9.226458988e-1	-1.338839307e0	1.893823055e0
6.894647833e0	1.220533177e0	8.837885195e-1	-1.181932783e0	1.915136676e0
6.904628833e0	1.446259675e0	7.842200848e-1	-1.005905864e0	1.928345093e0
6.914609833e0	1.711291741e0	6.817888534e-1	-7.873825514e-1	2.003328916e0
6.924590833e0	2.018530179e0	6.201387352e-1	-5.016104114e-1	2.170402990e0
6.934571833e0	2.243618746e0	6.302175808e-1	-1.870141295e-1	2.337942164e0
6.944553833e0	2.304087726e0	6.668185195e-1	1.105068210e-1	2.401182822e0
6.954534833e0	2.227878041e0	6.381104448e-1	3.380591118e-1	2.341988358e0
6.964515833e0	2.048918159e0	5.733735815e-1	4.818865836e-1	2.181521846e0
6.974496833e0	1.971510964e0	4.823768726e-1	5.753318140e-1	2.109632581e0
6.984477833e0	1.911903863e0	3.361482418e-1	6.015896130e-1	2.032309544e0
6.994458833e0	1.914632174e0	2.394212433e-1	5.505027822e-1	2.006537367e0
7.004439833e0	1.827254307e0	3.336485205e-1	4.213471439e-1	1.904655626e0
7.014420833e0	1.591586373e0	5.324483344e-1	4.011686951e-1	1.725567945e0
7.024402083e0	1.128701486e0	6.179048064e-1	5.193938407e-1	1.387639491e0
7.034383083e0	4.242043859e-1	3.220184086e-1	7.962232491e-1	9.579231070e-1
7.044364083e0	-2.741075295e-1	-2.725168310e-1	1.113059307e0	1.178262018e0
7.054345083e0	-6.166368377e-1	-8.869734979e-1	1.250873795e0	1.652769865e0
7.064326083e0	-4.499233639e-1	-1.249848193e0	1.167728727e0	1.768655398e0
7.074307083e0	3.788177133e-1	-1.256335386e0	1.064452280e0	1.689656805e0
7.084289083e0	1.495190930e0	-9.865144506e-1	1.060836947e0	2.081869762e0
7.094270083e0	2.395929358e0	-5.681239513e-1	1.128567585e0	2.708672573e0
7.104251083e0	2.776703550e0	-1.591433761e-1	1.250779070e0	3.049566772e0
7.114232083e0	2.373561419e0	1.805035472e-2	1.370066947e0	2.740657415e0
7.124213083e0	1.334468513e0	-1.307279545e-1	1.519595454e0	2.026589834e0
7.134194083e0	8.724864364e-2	-4.003176329e-1	1.588260477e0	1.640255430e0
7.144175083e0	-1.042593634e0	-5.715802404e-1	1.484104024e0	1.901649340e0
7.154156083e0	-1.830094299e0	-6.036449093e-1	1.231576813e0	2.287009788e0
7.164137083e0	-2.282451274e0	-5.474946821e-1	9.825783974e-1	2.544561761e0
7.174118083e0	-2.507045751e0	-4.083420958e-1	7.495414183e-1	2.648364402e0
7.184099083e0	-2.528014451e0	-2.361935985e-1	5.641183162e-1	2.600937130e0
7.194080083e0	-2.420495265e0	-1.296861269e-2	4.818357128e-1	2.468021711e0
7.204061083e0	-2.269105589e0	1.620114353e-1	5.151139712e-1	2.332472998e0
7.214042083e0	-2.075155785e0	2.568880641e-1	6.362881601e-1	2.185663660e0
7.224024083e0	-1.834180334e0	2.799991840e-1	7.464976501e-1	1.999968945e0
7.234005083e0	-1.633223226e0	2.604604205e-1	7.811704695e-1	1.829066713e0
7.243986083e0	-1.445410659e0	2.612883863e-1	6.729361689e-1	1.615650545e0
7.253967083e0	-1.218815850e0	2.954299861e-1	4.376781249e-1	1.328289537e0
7.263948083e0	-9.676346684e-1	3.283588734e-1	1.022660476e-1	1.026934636e0
7.273929083e0	-7.021149445e-1	3.496824629e-1	-2.003832033e-1	8.095657159e-1
7.283910083e0	-5.351477015e-1	3.741130435e-1	-4.484381711e-1	7.921113717e-1
7.293891083e0	-4.684824264e-1	3.270008576e-1	-6.638560277e-1	8.758482576e-1
7.303872083e0	-4.152025974e-1	2.799532834e-1	-8.190604270e-1	9.600140732e-1
7.313853083e0	-3.899449646e-1	2.814744365e-1	-9.736081839e-1	1.085908757e0
7.323834083e0	-4.318882120e-1	3.001483968e-1	-1.091782751e0	1.211860579e0
7.333815083e0	-5.385501963e-1	3.031240083e-1	-1.101062575e0	1.262639803e0
7.343796083e0	-6.554307747e-1	3.100728759e-1	-1.025066020e0	1.255585535e0
7.353778083e0	-7.309879106e-1	3.091331918e-1	-8.998078439e-1	1.199816991e0
7.363759083e0	-7.762962306e-1	3.370633310e-1	-7.573185074e-1	1.135684308e0
7.373740083e0	-8.205386031e-1	3.608711466e-1	-6.792780590e-1	1.124691187e0
7.383721083e0	-8.007948947e-1	4.025738176e-1	-6.139342546e-1	1.086394685e0
7.393702083e0	-8.075764954e-1	4.526148007e-1	-5.314160085e-1	1.067446920e0
7.403683083e0	-8.562411171e-1	4.429823900e-1	-4.263921216e-1	1.054131154e0
7.413664083e0	-8.223506552e-1	4.393018601e-1	-3.876554874e-1	1.009714564e0
7.423645083e0	-6.976973730e-1	5.051888708e-1	-4.193345323e-1	9.580390752e-1
7.433626083e0	-5.604836869e-1	5.652035229e-1	-4.454888356e-1	9.121717427e-1
7.443607083e0	-4.402438831e-1	5.526495508e-1	-4.981979764e-1	8.645446352e-1
7.453588083e0	-2.776070881e-1	4.624954623e-1	-5.800537330e-1	7.921048423e-1
7.463569083e0	3.350279152e-2	5.048187786e-1	-6.522303012e-1	8.254506661e-1
7.473550083e0	3.158619118e-1	6.267598298e-1	-6.766918355e-1	9.749402401e-1
7.483531083e0	4.417226440e-1	6.960765249e-1	-6.113261041e-1	1.026333780e0
7.493513083e0	4.445035797e-1	6.556237328e-1	-4.191766575e-1	8.961779855e-1
7.503494083e0	4.482715255e-1	5.607298547e-1	-1.619681659e-1	7.359341121e-1
7.513475083e0	5.149403089e-1	5.852776355e-1	9.668955803e-3	7.796197285e-1
7.523456083e0	5.844099087e-1	6.910729893e-1	6.250264227e-2	9.072063702e-1
7.533437083e0	6.646249366e-1	7.756691167e-1	6.411471963e-2	1.023474270e0
7.543418083e0	7.415421349e-1	8.441593078e-1	8.392362446e-2	1.126735483e0
7.553399083e0	7.918012923e-1	9.098437124e-1	1.682942685e-1	1.217820934e0
7.563380083e0	7.559958673e-1	9.296464777e-1	2.683930457e-1	1.227927991e0
7.573361083e0	6.995883626e-1	9.657963037e-1	3.957109040e-1	1.256492538e0
7.583342083e0	6.577316540e-1	9.928782678e-1	5.102903107e-1	1.295690698e0
7.593323083e0	6.469780397e-1	9.859352839e-1	5.666279411e-1	1.308325721e0
7.603304083e0	6.976500106e-1	9.778576478e-1	5.877977854e-1	1.337320961e0
7.613285083e0	7.902909565e-1	9.241407394e-1	6.072731066e-1	1.359182301e0
7.623266083e0	8.958963490e-1	8.290132651e-1	5.871908444e-1	1.354505943e0
7.633248083e0	9.892968482e-1	8.118908635e-1	4.775070190e-1	1.365975103e0
7.643229083e0	9.659284508e-1	8.314574012e-1	3.314564359e-1	1.316891245e0
7.653210083e0	8.584998965e-1	8.491955146e-1	2.435610902e-1	1.231859204e0
7.663191083e0	7.093000031e-1	9.353393269e-1	2.489580703e-1	1.199977613e0
7.673172083e0	5.994056779e-1	1.057261082e0	3.780455884e-1	1.272794811e0
7.683153083e0	4.691262048e-1	1.057634135e0	6.219516644e-1	1.313580310e0
7.693134083e0	3.029442430e-1	9.034184995e-1	8.712421489e-1	1.291124735e0
7.703115083e0	1.411617261e-1	7.003487930e-1	1.069733778e0	1.286369084e0
7.713096083e0	1.288094831e-1	5.506872618e-1	1.197535493e0	1.324363848e0
7.723077083e0	3.367540133e-1	4.738452002e-1	1.213931086e0	1.345942503e0
7.733058083e0	5.925749606e-1	3.402702364e-1	1.128607638e0	1.319349885e0
7.743039083e0	8.527111530e-1	2.971060905e-1	9.101144385e-1	1.282067327e0
7.753020083e0	1.070773121e0	4.087481484e-1	6.845955169e-1	1.335028519e0
7.763001083e0	1.092948686e0	5.363814640e-1	5.836123484e-1	1.350127875e0
7.772983083e0	6.953099549e-1	5.770482641e-1	6.424289060e-1	1.108672870e0
7.782964083e0	2.167562842e-3	5.411741343e-1	7.453016022e-1	9.210584239e-1
7.792945083e0	-7.042912781e-1	5.530454439e-1	7.816546190e-1	1.188641835e0
7.802926083e0	-1.269701829e0	6.653643170e-1	7.323900729e-1	1.609735266e0
7.812907083e0	-1.640929856e0	8.271117505e-1	6.022351456e-1	1.933766225e0
7.822888083e0	-1.811207793e0	1.010540952e0	4.478113496e-1	2.121839223e0
7.832869083e0	-1.795230861e0	1.122405497e0	3.591237062e-1	2.147467760e0
7.842850083e0	-1.662561046e0	1.012934217e0	3.852531588e-1	1.984581809e0
7.852831083e0	-1.500442314e0	7.826694033e-1	4.708698446e-1	1.756592424e0
7.862812083e0	-1.202458264e0	5.801332551e-1	5.757083747e-1	1.453925928e0
7.872793083e0	-8.649382657e-1	4.244824210e-1	6.321325439e-1	1.152343301e0
7.882774083e0	-6.364518821e-1	2.913740650e-1	5.937625301e-1	9.178909446e-1
7.892755083e0	-4.863801688e-1	1.623859312e-1	5.067930910e-1	7.209536021e-1
7.902736083e0	-5.063986963e-1	1.553586926e-3	3.676480696e-1	6.257852318e-1
7.912718083e0	-5.851425648e-1	-1.867577291e-1	1.928037500e-1	6.437729076e-1
7.922699083e0	-6.384761882e-1	-3.176412195e-1	-3.194918633e-2	7.138406949e-1
7.932680083e0	-6.585292143e-1	-4.075608712e-1	-2.881019631e-1	8.262985725e-1
7.942661083e0	-5.939911562e-1	-4.379201996e-1	-5.244636691e-1	9.053517190e-1
7.952642083e0	-5.377731013e-1	-4.201750696e-1	-7.357773650e-1	1.003551358e0
7.962623083e0	-4.691022313e-1	-3.632179266e-1	-8.545939565e-1	1.040343691e0
7.972604083e0	-4.021364093e-1	-3.069712204e-1	-8.305045974e-1	9.724622914e-1
7.982585083e0	-4.739437258e-1	-3.107280564e-1	-7.196115679e-1	9.159778321e-1
7.992566083e0	-6.496163034e-1	-3.524780533e-1	-5.751169288e-1	9.364836366e-1
8.002547083e0	-7.391208029e-1	-3.390671718e-1	-4.094138539e-1	9.104316625e-1
8.012528083e0	-6.419494343e-1	-3.065089614e-1	-3.040920514e-1	7.736399649e-1
8.022509083e0	-3.644616294e-1	-2.237004375e-1	-2.233741629e-1	4.824626221e-1
8.032489792e0	-1.317465395e-1	-1.455550681e-1	-1.776387039e-1	2.647620397e-1
8.042470792e0	1.536338371e-1	-7.056862045e-2	-1.512812099e-1	2.268684433e-1
8.052452792e0	4.052933210e-1	1.701357029e-2	-1.526900965e-1	4.334355814e-1
8.062433792e0	5.371603131e-1	7.304984987e-2	-1.387731385e-1	5.595850843e-1
8.072414792e0	5.816547006e-1	1.659866283e-1	-8.838680416e-2	6.112986003e-1
8.082395792e0	5.790731549e-1	2.122834566e-1	-4.003588557e-2	6.180557069e-1
8.092376792e0	5.149841630e-1	1.898778033e-1	2.228256941e-2	5.493257515e-1
8.102357792e0	4.091168153e-1	1.596529244e-1	7.108898610e-2	4.448811850e-1
8.112338792e0	4.239564639e-1	1.555107568e-1	1.191835043e-1	4.670410972e-1
8.122319792e0	5.720372003e-1	2.024235527e-1	1.738111165e-1	6.311989841e-1
8.132300792e0	6.473212713e-1	2.156517087e-1	2.226686963e-1	7.177129204e-1
8.142281792e0	7.238449520e-1	1.954493228e-1	2.438546205e-1	7.884269327e-1
8.152262792e0	8.084342819e-1	2.566342584e-1	2.443957803e-1	8.826983790e-1
8.162243792e0	8.609452021e-1	3.351843283e-1	2.519249475e-1	9.576227619e-1
8.172224792e0	8.968892062e-1	3.486604062e-1	3.049293727e-1	1.009433628e0
8.182205792e0	9.334284568e-1	3.531639317e-1	3.931357902e-1	1.072645886e0
8.192187792e0	9.379536170e-1	3.454157497e-1	4.318528363e-1	1.088836948e0
8.202168792e0	9.441961044e-1	2.799652336e-1	4.218494198e-1	1.071374700e0
8.212149792e0	9.129538465e-1	1.106260676e-1	4.044381657e-1	1.004635796e0
8.222130792e0	9.043081534e-1	-1.508970844e-1	3.843640897e-1	9.941221855e-1
8.232111792e0	8.759351242e-1	-4.606916328e-1	4.107747933e-1	1.071557303e0
8.242092792e0	7.967673326e-1	-8.210017025e-1	5.253287646e-1	1.258909166e0
8.252073792e0	7.505439234e-1	-1.025880245e0	6.733942983e-1	1.438473614e0
8.262054792e0	7.202272797e-1	-1.020078053e0	7.968258047e-1	1.481289280e0
8.272035792e0	7.112506342e-1	-7.755089030e-1	8.564893314e-1	1.356784986e0
8.282016792e0	6.799405485e-1	-3.438829386e-1	9.132619947e-1	1.189378870e0
8.291997792e0	4.766989338e-1	-2.454368770e-3	1.107505914e0	1.205743442e0
8.301978792e0	6.070228457e-2	5.524738055e-2	1.376678686e0	1.379123361e0
8.311959792e0	-4.161451685e-1	-1.277388944e-1	1.488651696e0	1.550992553e0
8.321940792e0	-7.142286211e-1	-3.310576924e-1	1.256085710e0	1.482387611e0
8.331922792e0	-7.331788623e-1	-4.671439987e-1	6.952766258e-1	1.113186573e0
8.341903792e0	-5.343150580e-1	-5.418623516e-1	5.596370101e-2	7.630460832e-1
8.351884792e0	-3.210320199e-1	-5.691071606e-1	-4.484621447e-1	7.925041408e-1
8.361865792e0	-1.941679054e-1	-5.870310327e-1	-6.843417478e-1	9.222961762e-1
8.371846792e0	-1.823992145e-1	-5.869364905e-1	-6.053031796e-1	8.626446874e-1
8.381827792e0	-4.571212864e-1	-5.897446159e-1	-3.181861800e-1	8.111726250e-1
8.391808792e0	-9.361327940e-1	-5.521458863e-1	1.235250619e-1	1.093831856e0
8.401789792e0	-1.411225498e0	-4.970662478e-1	6.154820126e-1	1.617853630e0
8.411770792e0	-1.741988454e0	-4.661944109e-1	1.012177588e0	2.067937250e0
8.421751792e0	-1.800419095e0	-4.192816150e-1	1.230675173e0	2.220780802e0
8.431732792e0	-1.637094668e0	-3.907231560e-1	1.255460643e0	2.099744023e0
8.441713792e0	-1.321374843e0	-3.895876267e-1	1.072956178e0	1.746151470e0
8.451694792e0	-8.086769414e-1	-3.330056557e-1	7.120557958e-1	1.127774188e0
8.461675792e0	-2.106857049e-1	-2.069151279e-1	2.774761105e-1	4.052102273e-1
8.471656792e0	1.656136125e-1	-1.138561061e-1	-1.523223066e-1	2.521768559e-1
8.481638792e0	2.904697931e-1	-8.844268162e-2	-5.259474000e-1	6.073018000e-1
8.491619792e0	2.533306181e-1	-7.239203811e-2	-7.926754510e-1	8.353151381e-1
8.501600792e0	8.585934520e-2	-1.268063731e-2	-9.283147743e-1	9.323630977e-1
8.511581792e0	-1.701159686e-1	6.620678030e-2	-9.876476410e-1	1.004375748e0
8.521562792e0	-4.523622376e-1	1.069016471e-1	-9.991514531e-1	1.101981480e0
8.531543792e0	-5.964475715e-1	1.357571447e-1	-9.810405797e-1	1.156122972e0
8.541524792e0	-6.260286355e-1	2.236007425e-1	-9.727503973e-1	1.178198829e0
8.551505792e0	-5.394033051e-1	2.172591448e-1	-9.095074975e-1	1.079519036e0
8.561486792e0	-4.465179455e-1	1.661410314e-1	-7.822674072e-1	9.159276250e-1
8.571467792e0	-3.934404302e-1	1.986950391e-1	-6.347097042e-1	7.727428416e-1
8.581448792e0	-4.060897118e-1	2.342481568e-1	-4.313657632e-1	6.370694426e-1
8.591429792e0	-4.682690030e-1	2.174137305e-1	-2.197293010e-1	5.610931787e-1
8.601410792e0	-4.932950860e-1	1.844442051e-1	-7.218241543e-2	5.315731443e-1
8.611391792e0	-4.643279797e-1	1.866044589e-1	1.260805875e-2	5.005803232e-1
8.621372792e0	-3.453260314e-1	2.157640117e-1	-2.526640356e-2	4.079737343e-1
8.631354792e0	-1.591793364e-1	2.428476568e-1	-1.327005127e-1	3.192529900e-1
8.641335792e0	1.689845324e-2	2.420244420e-1	-2.338517886e-1	3.369689114e-1
8.651316792e0	1.774758589e-1	1.949435386e-1	-2.751343006e-1	3.810505834e-1
8.661297792e0	2.811926007e-1	1.262907949e-1	-2.064681083e-1	3.710090610e-1
8.671278792e0	3.618409073e-1	7.160171382e-2	-9.262369663e-2	3.803088177e-1
8.681259792e0	3.800128841e-1	4.434733003e-2	3.558089197e-2	3.842427327e-1
8.691240792e0	3.665075701e-1	3.459176235e-2	1.886741540e-1	4.136693430e-1
8.701221792e0	3.210285115e-1	-2.803944558e-2	3.378024191e-1	4.668575693e-1
8.711202792e0	3.691791630e-1	-5.965738714e-2	4.771082389e-1	6.062050230e-1
8.721183792e0	4.366630483e-1	-4.505550094e-2	5.393153045e-1	6.953888218e-1
8.731164792e0	5.761436999e-1	5.989069104e-2	5.991700351e-1	8.333865782e-1
8.741145792e0	6.959361917e-1	2.133928927e-1	5.264426592e-1	8.983348947e-1
8.751126792e0	7.555339372e-1	3.391022551e-1	5.081171930e-1	9.715991722e-1
8.761107792e0	7.409796327e-1	4.196514514e-1	5.267797512e-1	1.001326652e0
8.771089792e0	5.893016893e-1	4.656462345e-1	5.182755607e-1	9.125307959e-1
8.781070792e0	4.894166279e-1	5.087866992e-1	4.504595536e-1	8.374403563e-1
8.791051792e0	4.876273799e-1	6.108507255e-1	2.570634806e-1	8.228005247e-1
8.801032792e0	5.291016805e-1	7.942368769e-1	-1.738640338e-2	9.544962504e-1
8.811013792e0	5.571361560e-1	9.520429947e-1	-2.942158118e-1	1.141643335e0
8.820994792e0	5.089457434e-1	9.337301000e-1	-4.986104974e-1	1.174516964e0
8.830975792e0	4.890973699e-1	8.237496015e-1	-5.760887361e-1	1.117880975e0
8.840956792e0	5.290478861e-1	7.214399191e-1	-5.458524916e-1	1.048008667e0
8.850937792e0	6.044103098e-1	6.204787508e-1	-3.112426114e-1	9.204225475e-1
8.860918792e0	7.046766096e-1	5.397897329e-1	1.616752204e-1	9.022643498e-1
8.870899792e0	6.499115878e-1	3.611309823e-1	7.787821743e-1	1.076709029e0
8.880880792e0	4.068755776e-1	1.604686475e-1	1.372711642e0	1.440706485e0
8.890861792e0	1.786254215e-1	1.673209995e-2	1.751479070e0	1.760643614e0
8.900842792e0	5.752783120e-2	-1.270311255e-2	1.800082588e0	1.801046402e0
8.910824792e0	8.787780404e-2	1.256183286e-1	1.578336290e0	1.585764143e0
8.920805792e0	1.472726512e-1	3.585269979e-1	1.186571964e0	1.248272353e0
8.930786792e0	4.490603149e-2	5.348763907e-1	8.228137547e-1	9.824112071e-1
8.940767792e0	-3.605287921e-1	5.353777894e-1	5.593078119e-1	8.540700298e-1
8.950748792e0	-9.416028643e-1	3.861512911e-1	3.261155891e-1	1.068681501e0
8.960729792e0	-1.537017817e0	2.537780032e-1	1.382156065e-1	1.563947122e0
8.970710792e0	-1.962796274e0	2.696446422e-1	-1.355092227e-2	1.981277637e0
8.980691792e0	-2.231982202e0	2.950964756e-1	-1.485493907e-1	2.256300822e0
8.990672792e0	-2.259117960e0	2.421451504e-1	-1.744320908e-1	2.278744125e0
9.000653792e0	-2.014848188e0	1.533572638e-1	-1.224547291e-1	2.024383074e0
9.010634792e0	-1.607149322e0	1.190504436e-1	-1.006735584e-1	1.614694125e0
9.020615792e0	-1.107807046e0	1.171746568e-1	-1.211358896e-1	1.120553548e0
9.030596542e0	-6.162006354e-1	1.644614187e-1	-1.478620505e-1	6.546861594e-1
9.040577542e0	-2.913392740e-1	1.872576294e-1	-1.370052329e-1	3.724438565e-1
9.050558542e0	-1.624678105e-1	1.205137458e-1	-1.069981992e-2	2.025681084e-1
9.060540542e0	-2.149249363e-1	-6.792388827e-2	1.773162299e-1	2.867881243e-1
9.070521542e0	-2.914614809e-1	-2.713745775e-1	3.365490684e-1	5.214012194e-1
9.080502542e0	-2.887068576e-1	-3.997399645e-1	4.199484900e-1	6.476885232e-1
9.090483542e0	-2.125240695e-1	-4.477528775e-1	3.960740161e-1	6.344475909e-1
9.100464542e0	-7.983788252e-2	-4.361750981e-1	3.038306808e-1	5.375275680e-1
9.110445542e0	6.636882126e-2	-3.468574172e-1	1.445703605e-1	3.815959610e-1
9.120426542e0	1.272991472e-1	-2.139736126e-1	3.032073677e-3	2.489959302e-1
9.130407542e0	2.872561634e-2	-8.015072683e-2	-8.191569060e-2	1.181502451e-1
9.140388542e0	-1.843171012e-1	-3.270201534e-2	-8.294509292e-2	2.047488805e-1
9.150369542e0	-3.373439974e-1	-3.399779487e-2	-4.027825266e-2	3.414369052e-1
9.160350542e0	-3.458639753e-1	-7.137257606e-5	-4.032970816e-2	3.482073805e-1
9.170331542e0	-2.752073908e-1	-5.437362380e-3	-8.850257903e-2	2.891390312e-1
9.180312542e0	-1.622485399e-1	1.246213418e-2	-2.216594669e-1	2.749778405e-1
9.190293542e0	2.570026696e-2	9.601361990e-2	-3.485326445e-1	3.624280939e-1
9.200274542e0	2.152266526e-1	1.549953613e-1	-4.394053924e-1	5.132476721e-1
9.210256542e0	4.021252996e-1	1.615614555e-1	-4.452067074e-1	6.213017566e-1
9.220237542e0	5.760080445e-1	1.449653034e-1	-4.358008763e-1	7.366970953e-1
9.230218542e0	7.158845526e-1	1.515229557e-1	-4.188340107e-1	8.431321529e-1
9.240199542e0	8.151550716e-1	1.514217989e-1	-3.867877606e-1	9.148831202e-1
9.250180542e0	9.140922993e-1	9.295256596e-2	-3.126526675e-1	9.705444872e-1
9.260161542e0	1.065065653e0	1.537550937e-2	-2.016894713e-1	1.084103268e0
9.270142542e0	1.171102570e0	-2.574967593e-2	-6.047950566e-2	1.172945884e0
9.280123542e0	1.218543370e0	-1.151141346e-2	9.042017341e-2	1.221947734e0
9.290104542e0	1.188834252e0	9.275990020e-2	1.712055972e-1	1.204675323e0
9.300085542e0	1.120008430e0	1.800401554e-1	2.915801793e-1	1.171261005e0
9.310066542e0	1.042421726e0	2.807651693e-1	3.835937190e-1	1.145694670e0
9.320047542e0	8.558815134e-1	3.071711951e-1	4.962602091e-1	1.035935086e0
9.330028542e0	6.552921957e-1	1.716841918e-1	5.804577756e-1	8.920843865e-1
9.340009542e0	5.936116719e-1	7.476045281e-2	5.275433975e-1	7.976628227e-1
9.349991542e0	5.747193182e-1	3.555867255e-2	3.504335743e-1	6.740700289e-1
9.359972542e0	6.090950990e-1	-3.257133007e-2	1.279037493e-1	6.232311772e-1
9.369953542e0	7.329707015e-1	-2.097337782e-2	-1.173249668e-1	7.425975219e-1
9.379934542e0	7.952236676e-1	-4.681317396e-2	-3.116212186e-1	8.553829193e-1
9.389915542e0	7.436781228e-1	-2.854028884e-1	-3.111046171e-1	8.551596586e-1
9.399896542e0	7.340506822e-1	-6.439892355e-1	-2.522459596e-1	1.008553699e0
9.409877542e0	8.932803047e-1	-8.840325677e-1	-2.771746865e-1	1.286968955e0
9.419858542e0	1.101989651e0	-9.005060014e-1	-3.628220701e-1	1.468649755e0
9.429839542e0	1.184820138e0	-9.154814516e-1	-3.258276138e-1	1.532340916e0
9.439820542e0	1.148645754e0	-9.572696746e-1	-2.498541561e-1	1.515974735e0
9.449801542e0	9.916310567e-1	-1.020611904e0	-4.982646346e-2	1.423890265e0
9.459782542e0	8.426206130e-1	-1.049223573e0	1.685065225e-1	1.356198382e0
9.469763542e0	6.500548446e-1	-1.037561301e0	4.208004293e-1	1.294672837e0
9.479744542e0	4.581539047e-1	-1.074065615e0	6.287870595e-1	1.326233430e0
9.489725542e0	3.427339607e-1	-1.129063721e0	8.257929111e-1	1.440203245e0
9.499706542e0	2.653934240e-1	-1.186906790e0	9.822547540e-1	1.563331635e0
9.509688542e0	1.808058482e-1	-1.227111880e0	1.108549057e0	1.663543006e0
9.519669542e0	2.253633857e-2	-1.331154896e0	1.142269950e0	1.754212610e0
9.529650542e0	-1.129436481e-1	-1.473957936e0	1.055898681e0	1.816653596e0
9.539631542e0	-2.292740035e-1	-1.582977810e0	8.757003585e-1	1.823523082e0
9.549612542e0	-2.842664820e-1	-1.658067753e0	7.061179483e-1	1.824444755e0
9.559593542e0	-3.813173980e-1	-1.635343134e0	5.232068101e-1	1.758833560e0
9.569574542e0	-6.152136254e-1	-1.527687415e0	3.952016115e-1	1.693664949e0
9.579555542e0	-1.021009807e0	-1.411194507e0	3.916117135e-1	1.785298490e0
9.589536542e0	-1.492616401e0	-1.339153302e0	4.620048809e-1	2.057834735e0
9.599517542e0	-1.943909767e0	-1.282682648e0	5.115831301e-1	2.384486791e0
9.609498542e0	-2.267785873e0	-1.177436274e0	4.608436239e-1	2.596456391e0
9.619479542e0	-2.344327680e0	-1.059428937e0	3.142574358e-1	2.591721374e0
9.629460542e0	-2.164540417e0	-9.800787127e-1	1.230464673e-1	2.379270882e0
9.639441542e0	-1.718468614e0	-9.237355274e-1	-3.167553663e-2	1.951262422e0
9.649423542e0	-1.184845866e0	-9.663930121e-1	-1.730664736e-1	1.538742079e0
9.659404542e0	-6.966010201e-1	-1.045833869e0	-3.085692644e-1	1.293922893e0
9.669385542e0	-2.916749042e-1	-1.093355140e0	-3.839085916e-1	1.194941639e0
9.679366542e0	-5.481940091e-2	-1.086012719e0	-3.431438506e-1	1.140252820e0
9.689347542e0	1.170846462e-2	-1.104631496e0	-1.612629917e-1	1.116402070e0
9.699328542e0	1.014725804e-2	-1.097287320e0	3.050492406e-2	1.097758161e0
9.709309542e0	-7.577991486e-3	-1.022091834e0	1.660562468e-1	1.035521038e0
9.719290542e0	-1.467417240e-2	-9.193395907e-1	2.332793462e-1	9.485883552e-1
9.729271542e0	-6.023392260e-2	-8.632464469e-1	2.157713208e-1	8.918406900e-1
9.739252542e0	-1.550213814e-1	-7.960359190e-1	1.229163668e-1	8.202519407e-1
9.749233542e0	-2.728708434e-1	-6.505550739e-1	1.748317480e-3	7.054668369e-1
9.759214542e0	-4.320221132e-1	-4.994052802e-1	-1.355422595e-1	6.741071460e-1
9.769195542e0	-5.895110196e-1	-3.961588007e-1	-1.686757994e-1	7.300113444e-1
9.779176542e0	-7.436348534e-1	-3.534367043e-1	-1.786552423e-1	8.425129048e-1
9.789157542e0	-7.627178264e-1	-3.102246112e-1	-1.888948864e-1	8.447834457e-1
9.799139542e0	-6.368272734e-1	-2.560612679e-1	-2.641848046e-1	7.354658116e-1
9.809120542e0	-5.201238656e-1	-1.961356397e-1	-3.893447480e-1	6.786658659e-1
9.819101542e0	-4.378482789e-1	-1.283208751e-1	-4.648741096e-1	6.513718601e-1
9.829082542e0	-3.790972102e-1	-9.811803281e-2	-5.203109765e-1	6.512030063e-1
9.839063542e0	-3.366271287e-1	-6.071807206e-2	-5.393530190e-1	6.386753378e-1
9.849044542e0	-3.896315539e-1	-6.665533483e-2	-4.644326448e-1	6.098797939e-1
9.859025542e0	-4.035648841e-1	-1.176480985e-1	-3.190477672e-1	5.277283094e-1
9.869006542e0	-2.700174022e-1	-1.860804753e-1	-1.298885867e-1	3.527128942e-1
9.878987542e0	-2.828356683e-2	-2.438783748e-1	9.443925709e-2	2.630501760e-1
9.888968542e0	2.577060896e-1	-3.059725159e-1	3.171471298e-1	5.105035857e-1
9.898949542e0	5.657292241e-1	-3.532011346e-1	5.512091258e-1	8.652352841e-1
9.908930542e0	8.344292486e-1	-4.015888175e-1	7.337969130e-1	1.181525987e0
9.918911542e0	9.888898820e-1	-3.523245639e-1	8.427322948e-1	1.346192229e0
9.928892542e0	1.022392673e0	-2.876420796e-1	9.202657896e-1	1.405316288e0
9.938873542e0	8.684787548e-1	-2.698007628e-1	1.032849834e0	1.376163718e0
9.948855542e0	6.152416921e-1	-2.922331671e-1	1.108511927e0	1.301046216e0
9.958836542e0	3.609076917e-1	-2.936185187e-1	1.132672330e0	1.224505126e0
9.968817542e0	2.243570799e-1	-2.786445303e-1	1.042088727e0	1.101783912e0
9.978798542e0	2.223801363e-1	-3.100398391e-1	8.217583323e-1	9.060156640e-1
9.988779542e0	3.532115865e-1	-3.274774057e-1	4.692261922e-1	6.724381723e-1
9.998760542e0	5.468427175e-1	-2.693310121e-1	1.267296284e-2	6.097021862e-1
1.000874154e1	7.027452743e-1	-1.880888477e-1	-4.105680943e-1	8.353409455e-1
1.001872254e1	8.310290927e-1	-1.571062792e-1	-7.405454770e-1	1.124143825e0
1.002870396e1	9.143092310e-1	-1.229547391e-1	-9.694873586e-1	1.338276868e0
1.003868496e1	8.473077410e-1	-1.078671686e-1	-1.049141639e0	1.352872467e0
1.004866596e1	7.329707015e-1	-1.117823911e-1	-1.008620142e0	1.251821051e0
1.005864696e1	6.169502485e-1	-1.281744754e-1	-8.055159366e-1	1.022698504e0
1.006862796e1	5.321866715e-1	-1.226336539e-1	-4.832402140e-1	7.292343730e-1
1.007860896e1	4.939973366e-1	-5.894139558e-2	-5.910365582e-2	5.009996994e-1
1.008858996e1	4.647676903e-1	4.767322630e-2	4.738969481e-1	6.654773173e-1
1.009857196e1	3.999162215e-1	1.144520105e-1	1.139890133e0	1.213417390e0
1.010855296e1	2.544749182e-1	5.161183767e-2	1.806115745e0	1.824685000e0
1.011853396e1	5.877387285e-2	-9.427568123e-2	2.303070019e0	2.305747988e0
1.012851496e1	-3.175505877e-2	-2.144577438e-1	2.460574420e0	2.470106675e0
1.013849596e1	3.994349957e-2	-3.330015627e-1	2.242841066e0	2.267778995e0
1.014847696e1	2.109453213e-1	-4.710911617e-1	1.731930073e0	1.807209614e0
1.015845796e1	4.703775090e-1	-5.412950986e-1	1.069912703e0	1.288009540e0
1.016843896e1	6.652681303e-1	-5.784039411e-1	4.200581253e-1	9.765150449e-1
1.017841996e1	6.894685864e-1	-5.796724945e-1	-1.170168185e-1	9.083391814e-1
1.018840096e1	5.187029922e-1	-4.978722133e-1	-4.521684024e-1	8.493443348e-1
1.019838196e1	4.234845936e-2	-3.903458644e-1	-5.954801497e-1	7.132740669e-1
1.020836296e1	-6.042243683e-1	-2.698037595e-1	-4.850163057e-1	8.204401092e-1
1.021834396e1	-1.278094922e0	-2.505239546e-1	-1.573444802e-1	1.311886492e0
1.022832496e1	-1.796865157e0	-2.839521942e-1	2.497228861e-1	1.836222961e0
1.023830596e1	-2.067770752e0	-2.492259458e-1	6.069623271e-1	2.169376113e0
1.024828796e1	-2.085519390e0	-1.584674379e-1	8.514288586e-1	2.258192675e0
1.025826896e1	-1.962813815e0	-7.605071403e-2	1.009544879e0	2.208529522e0
1.026824996e1	-1.721234931e0	-9.022641130e-2	1.067658016e0	2.027482215e0
1.027823096e1	-1.376174363e0	-1.274667431e-1	1.027553134e0	1.722198912e0
1.028821196e1	-1.036009085e0	-1.271591795e-1	8.959983829e-1	1.375608005e0
1.029819296e1	-7.374256951e-1	-1.640399075e-1	7.036331740e-1	1.032378511e0
1.030817396e1	-5.089919364e-1	-2.458231587e-1	5.277939507e-1	7.733487384e-1
1.031815496e1	-4.102710557e-1	-3.849198675e-1	3.599253595e-1	6.678562031e-1
1.032813596e1	-3.898139870e-1	-5.445924166e-1	1.865109766e-1	6.952137722e-1
1.033811696e1	-4.311596489e-1	-6.513678369e-1	2.089677930e-2	7.814188231e-1
1.034809796e1	-4.995755804e-1	-7.789418033e-1	-1.046920574e-1	9.312821915e-1
1.035807896e1	-4.923653787e-1	-9.200170637e-1	-1.920614460e-1	1.061010209e0
1.036805996e1	-2.872035384e-1	-9.871512124e-1	-3.066502082e-1	1.072840966e0
1.037804096e1	-9.180187047e-2	-9.711097417e-1	-4.151894411e-1	1.060124514e0
1.038802196e1	-2.049039781e-2	-9.755890013e-1	-4.173751304e-1	1.061317933e0
1.039800396e1	-4.830384851e-2	-9.674037033e-1	-3.400372249e-1	1.026561494e0
1.040798496e1	-5.642913938e-2	-9.229247379e-1	-2.662725529e-1	9.622241901e-1
1.041796596e1	-9.659366369e-2	-8.506968603e-1	-2.392022833e-1	8.889506265e-1
1.042794696e1	-1.861911339e-1	-7.617487235e-1	-2.472708562e-1	8.222354482e-1
1.043792796e1	-2.540217590e-1	-6.982196025e-1	-3.098424956e-1	8.050093412e-1
1.044790896e1	-3.103590971e-1	-6.594274197e-1	-3.860071573e-1	8.247234788e-1
1.045788996e1	-2.882577914e-1	-5.960438944e-1	-4.679202166e-1	8.107466975e-1
1.046787096e1	-2.354013008e-1	-5.630331460e-1	-4.595160136e-1	7.639208484e-1
1.047785196e1	-1.437286538e-1	-5.536913420e-1	-4.206308600e-1	7.100439060e-1
1.048783296e1	1.164472997e-2	-5.112127820e-1	-3.207265028e-1	6.036054985e-1
1.049781396e1	1.183768809e-1	-4.530811527e-1	-1.791341293e-1	5.013827412e-1
1.050779496e1	1.460581845e-1	-4.136688727e-1	-2.434254348e-2	4.393716979e-1
1.051777596e1	1.407483280e-1	-3.887547639e-1	9.917871773e-2	4.251785229e-1
1.052775696e1	9.499094188e-2	-3.480221826e-1	1.639138269e-1	3.962454558e-1
1.053773796e1	1.333744043e-1	-3.377220929e-1	2.081944987e-1	4.185569174e-1
1.054771996e1	1.651768255e-1	-3.867827904e-1	2.442650950e-1	4.863638014e-1
1.055770096e1	2.227514344e-1	-4.777734328e-1	3.072749832e-1	6.101668378e-1
1.056768196e1	3.105503011e-1	-6.100544078e-1	3.742823204e-1	7.801891600e-1
1.057766296e1	3.948472703e-1	-7.462647117e-1	4.646966466e-1	9.637211008e-1
1.058764396e1	4.635321736e-1	-8.940036052e-1	5.764360607e-1	1.160337474e0
1.059762496e1	5.650918776e-1	-1.120409842e0	7.678961205e-1	1.471159915e0
1.060760596e1	6.141745752e-1	-1.361782904e0	1.008992317e0	1.802700358e0
1.061758696e1	5.654900730e-1	-1.573919011e0	1.222565962e0	2.071634042e0
1.062756796e1	5.161138451e-1	-1.669585014e0	1.412923529e0	2.247274019e0
1.063754896e1	4.102792418e-1	-1.623339677e0	1.567330661e0	2.293487773e0
1.064752996e1	2.955136013e-1	-1.582324383e0	1.644284404e0	2.301032365e0
1.065751096e1	1.373177665e-1	-1.570455705e0	1.717902603e0	2.331603878e0
1.066749196e1	1.128834218e-1	-1.635289340e0	1.819940025e0	2.449305123e0
1.067747296e1	2.105681759e-1	-1.567435618e0	1.639555761e0	2.278011516e0
1.068745496e1	3.458698225e-1	-1.499236618e0	1.223312944e0	1.965662975e0
1.069743596e1	2.342552465e-1	-1.410718836e0	6.229951000e-1	1.559848086e0
1.070741696e1	4.346586227e-2	-1.270118443e0	4.385411739e-2	1.271618388e0
1.071739796e1	-2.781152111e-1	-1.176745206e0	-4.510480759e-1	1.290550936e0
1.072737896e1	-5.307944494e-1	-1.010612873e0	-8.907198089e-1	1.447916746e0
1.073735996e1	-5.591733259e-1	-8.916644266e-1	-9.808838743e-1	1.438705471e0
1.074734096e1	-4.682719266e-1	-8.403863919e-1	-7.759898365e-1	1.235996809e0
1.075732196e1	-2.389470524e-1	-8.826966251e-1	-3.002121314e-1	9.624844672e-1
1.076730296e1	4.842020810e-2	-1.000362704e0	3.318470299e-1	1.055079384e0
1.077728396e1	3.280627120e-1	-1.059667796e0	9.652507585e-1	1.470452314e0
1.078726496e1	5.505533606e-1	-1.039877895e0	1.457471419e0	1.873146544e0
1.079724596e1	6.627941734e-1	-1.002642826e0	1.843249657e0	2.200490412e0
1.080722696e1	6.100125271e-1	-9.811551851e-1	2.140076251e0	2.432017093e0
1.081720796e1	4.427774817e-1	-1.009351921e0	2.290098263e0	2.541533642e0
1.082718896e1	1.723689008e-1	-1.031289285e0	2.189657424e0	2.426492996e0
1.083717096e1	-1.905496484e-1	-9.980665022e-1	1.879929826e0	2.136956261e0
1.084715196e1	-5.360347241e-1	-9.527374247e-1	1.434796501e0	1.803796781e0
1.085713296e1	-7.887490457e-1	-9.655495512e-1	9.698174340e-1	1.579543240e0
1.086711396e1	-8.922476864e-1	-1.018627578e0	5.439679340e-1	1.459318057e0
1.087709496e1	-8.756170356e-1	-1.106275075e0	2.136645690e-1	1.426955599e0
1.088707596e1	-7.331975734e-1	-1.184942418e0	-4.103605181e-2	1.394041310e0
1.089705696e1	-4.729526228e-1	-1.191043111e0	-1.398101422e-1	1.289113940e0
1.090703796e1	-2.679615211e-1	-1.189381844e0	-1.127080053e-1	1.224391947e0
1.091701896e1	-8.607159913e-2	-1.155513309e0	-2.204692662e-2	1.158924240e0
1.092699996e1	1.441455603e-2	-1.029736776e0	1.235724244e-1	1.037225025e0
1.093698096e1	-9.807008564e-2	-9.389365339e-1	2.368584269e-1	9.733044081e-1
1.094696196e1	-3.997109842e-1	-9.245176656e-1	4.304693851e-1	1.095356415e0
1.095694296e1	-7.336267591e-1	-8.080610834e-1	4.690817660e-1	1.187943029e0
1.096692396e1	-1.055279753e0	-6.172503568e-1	4.078777903e-1	1.288789220e0
1.097690496e1	-1.266129180e0	-5.023173398e-1	3.420983684e-1	1.404434799e0
1.098688596e1	-1.335712216e0	-5.468533156e-1	2.019034794e-1	1.457374587e0
1.099686796e1	-1.156318470e0	-4.330208176e-1	-6.536953211e-2	1.236467795e0
1.100684896e1	-8.765444040e-1	-1.930324493e-1	-3.760651365e-1	9.731477820e-1
1.101682996e1	-6.636566377e-1	-2.687475331e-2	-5.410835025e-1	8.566993298e-1
1.102681017e1	-5.708870530e-1	1.684502430e-2	-5.096418545e-1	7.654610388e-1
1.103679117e1	-5.754437882e-1	3.888391100e-2	-3.212609383e-1	6.601939885e-1
1.104677217e1	-6.246375829e-1	7.766461864e-2	-1.067777592e-1	6.384398114e-1
1.105675317e1	-6.637478542e-1	9.295084834e-2	4.133922994e-2	6.714983292e-1
1.106673417e1	-6.488947570e-1	1.787403924e-1	6.375014573e-2	6.760744150e-1
1.107671517e1	-5.550089389e-1	2.696080240e-1	-1.431427628e-2	6.171938977e-1
1.108669617e1	-3.007901287e-1	2.566956177e-1	-1.177480128e-1	4.125917306e-1
1.109667717e1	6.637934625e-2	2.265861847e-1	-2.238056874e-1	3.253252256e-1
1.110665817e1	4.484820253e-1	1.891283365e-1	-3.249721661e-1	5.852457291e-1
1.111663917e1	7.941255605e-1	1.487250996e-1	-3.258053944e-1	8.711507999e-1
1.112662017e1	1.010419330e0	2.549473733e-2	-2.635056505e-1	1.044524979e0
1.113660117e1	1.051811770e0	-6.916861430e-2	-8.936650515e-2	1.057865146e0
1.114658317e1	1.021555352e0	-1.294943382e-1	1.568036127e-1	1.041600448e0
1.115656417e1	9.110271889e-1	-1.778565127e-1	3.604115555e-1	9.957409138e-1
1.116654517e1	7.907715976e-1	-1.775536269e-2	5.126443997e-1	9.425705560e-1
1.117652617e1	6.350000185e-1	1.305536344e-1	6.649608591e-1	9.286776723e-1
1.118650717e1	5.351208043e-1	2.200427118e-1	7.944041803e-1	9.827772240e-1
1.119648817e1	5.012589937e-1	2.782069393e-1	8.907469985e-1	1.059287447e0
1.120646917e1	3.848602259e-1	4.761741462e-1	8.759772241e-1	1.068735378e0
1.121645017e1	1.998338574e-1	5.861629039e-1	8.100644857e-1	1.019669060e0
1.122643117e1	4.240225375e-2	5.234552436e-1	7.540268174e-1	9.188905183e-1
1.123641217e1	-9.509794593e-2	3.742125193e-1	7.665439519e-1	8.582938070e-1
1.124639317e1	7.454030514e-3	2.711497155e-1	7.176676610e-1	7.672187448e-1
1.125637417e1	1.277306718e-1	2.165259039e-1	6.385486937e-1	6.862528876e-1
1.126635517e1	3.138107085e-1	1.446329988e-1	6.037168300e-1	6.956075589e-1
1.127633617e1	6.175571895e-1	2.383551680e-1	6.328540903e-1	9.158025813e-1
1.128631717e1	8.218600738e-1	4.329646113e-1	7.144499382e-1	1.171900614e0
1.129629917e1	9.047045946e-1	5.246072182e-1	9.074630186e-1	1.384627122e0
1.130628017e1	7.563589793e-1	5.051852529e-1	1.121057421e0	1.443627648e0
1.131626117e1	5.746912515e-1	4.529093177e-1	1.338300486e0	1.525268853e0
1.132624217e1	4.636473638e-1	2.703900891e-1	1.497892636e0	1.591151164e0
1.133622317e1	3.725547606e-1	-2.585960358e-2	1.512959449e0	1.558368397e0
1.134620417e1	3.132382661e-1	-3.836752146e-1	1.319567176e0	1.409461746e0
1.135618517e1	3.445436740e-1	-6.993617099e-1	9.604230049e-1	1.237024451e0
1.136616617e1	4.882770056e-1	-8.389604022e-1	4.400561875e-1	1.065794745e0
1.137614717e1	6.268840832e-1	-8.289773047e-1	-1.271015114e-1	1.047063427e0
1.138612817e1	6.060925537e-1	-7.316484267e-1	-6.383472571e-1	1.144615579e0
1.139610917e1	3.613374621e-1	-5.090816181e-1	-1.006206411e0	1.184136900e0
1.140609017e1	-8.617743373e-2	-2.956504261e-1	-1.026252128e0	1.071461224e0
1.141607117e1	-6.958976001e-1	-2.563676620e-1	-6.944819891e-1	1.016023170e0
1.142605217e1	-1.348172632e0	-2.380277970e-1	-1.692584744e-1	1.379447393e0
1.143603317e1	-1.913849816e0	-1.502535617e-1	3.903700572e-1	1.959026808e0
1.144601417e1	-2.242883751e0	-3.568372987e-2	9.161589977e-1	2.423045224e0
1.145599617e1	-2.261649220e0	2.587166347e-2	1.263405547e0	2.590737369e0
1.146597717e1	-1.903354649e0	3.409964606e-2	1.384712760e0	2.354007463e0
1.147595817e1	-1.258384543e0	-2.606834918e-3	1.247076613e0	1.771648535e0
1.148593917e1	-5.405908746e-1	5.238915190e-2	8.773305622e-1	1.031839150e0
1.149592017e1	4.034988105e-2	1.319354776e-1	4.563976935e-1	4.767954884e-1
1.150590117e1	3.694481349e-1	1.358594710e-1	1.461271816e-1	4.198843572e-1
1.151588217e1	3.206613064e-1	6.559881605e-2	4.928705782e-2	3.309925862e-1
1.152586317e1	3.670589626e-2	-1.565065742e-2	1.610106844e-1	1.658816035e-1
1.153584417e1	-3.659789819e-1	-7.775459267e-2	3.469840094e-1	5.102786441e-1
1.154582517e1	-7.476279169e-1	-1.159946521e-1	4.523037654e-1	8.814652334e-1
1.155580617e1	-1.000152789e0	-8.632346794e-2	4.282559216e-1	1.091402985e0
1.156578717e1	-1.061500021e0	-6.412232101e-2	2.630492753e-1	1.095485686e0
1.157576817e1	-8.350379437e-1	-8.678649433e-2	6.559991241e-3	8.395613715e-1
1.158574917e1	-4.477277344e-1	-1.269535037e-1	-2.735260239e-1	5.398090422e-1
1.159573017e1	-9.420507610e-2	-1.514556031e-1	-5.718424881e-1	5.990135451e-1
1.160571217e1	2.243699437e-1	-1.823862045e-1	-7.782644033e-1	8.302421820e-1
1.161569317e1	4.460244405e-1	-2.043178678e-1	-9.147422174e-1	1.037996588e0
1.162567417e1	4.832372904e-1	-1.128822523e-1	-9.946268776e-1	1.111549957e0
1.163565517e1	3.811267787e-1	3.634534232e-2	-9.845532945e-1	1.056372943e0
1.164563617e1	1.622994107e-1	1.326815093e-1	-9.036681756e-1	9.276646233e-1
1.165561717e1	-6.316747069e-2	1.807763929e-1	-7.172229803e-1	7.423469788e-1
1.166559817e1	-2.471822709e-1	1.887028784e-1	-4.136989859e-1	5.175468117e-1
1.167557917e1	-3.055187720e-1	9.152844004e-2	-5.648614973e-2	3.238979168e-1
1.168556017e1	-2.456555629e-1	5.511241950e-2	1.762768874e-1	3.073395116e-1
1.169554117e1	-8.740067124e-2	1.546500101e-1	2.477099821e-1	3.048208296e-1
1.170552217e1	2.202763081e-2	2.926604524e-1	2.584831846e-1	3.910868364e-1
1.171550317e1	2.087754196e-1	3.644537356e-1	2.924911755e-1	5.118249594e-1
1.172548417e1	3.097626811e-1	4.183904994e-1	3.505940804e-1	6.276302556e-1
1.173546517e1	3.778868365e-1	4.956220586e-1	4.432677707e-1	7.648045520e-1
1.174544617e1	4.270829701e-1	5.305803683e-1	5.064887434e-1	8.487910448e-1
1.175542817e1	4.375278515e-1	5.090673655e-1	5.262739670e-1	8.529621866e-1
1.176540917e1	4.180846900e-1	4.992485748e-1	4.776684022e-1	8.075958456e-1
1.177539017e1	3.798292816e-1	4.065930109e-1	3.002901918e-1	6.322676323e-1
1.178537117e1	2.456929851e-1	3.517249319e-1	7.525337309e-2	4.355898768e-1
1.179535217e1	2.131713563e-1	3.104036091e-1	-8.825641125e-2	3.867578335e-1
1.180533317e1	2.423407763e-1	2.257506906e-1	-1.601444194e-1	3.678840323e-1
1.181531417e1	3.522865570e-1	1.295901594e-1	-9.675884753e-2	3.876360435e-1
1.182529517e1	4.575902331e-1	7.121418960e-2	8.491735876e-2	4.708197532e-1
1.183527617e1	5.925235051e-1	1.713997979e-2	3.813688534e-1	7.048546555e-1
1.184525717e1	5.514766359e-1	-1.025983156e-1	7.545603758e-1	9.402203226e-1
1.185523817e1	5.330935746e-1	-1.517996752e-1	1.121447430e0	1.250950135e0
1.186521917e1	4.959900677e-1	-2.141135986e-1	1.451319855e0	1.548605858e0
1.187520017e1	4.209837395e-1	-3.121840497e-1	1.663630502e0	1.744234112e0
1.188518117e1	3.142527580e-1	-3.915819658e-1	1.733561739e0	1.804806786e0
1.189516217e1	3.194521022e-1	-4.508582606e-1	1.664719253e0	1.754027653e0
1.190514317e1	5.035154343e-1	-3.707141302e-1	1.451386514e0	1.580341599e0
1.191512517e1	7.168961209e-1	-2.247913087e-1	1.066102657e0	1.304241563e0
1.192510617e1	8.373247898e-1	-1.331509676e-1	6.429042846e-1	1.064033788e0
1.193508717e1	8.071356153e-1	-1.954688378e-1	2.654153511e-1	8.718493429e-1
1.194506817e1	7.159441942e-1	-3.833802225e-1	-2.650572091e-2	8.125632514e-1
1.195504917e1	6.345263940e-1	-5.404420629e-1	-2.443285373e-1	8.685607648e-1
1.196503017e1	4.412490195e-1	-7.181362423e-1	-3.402725753e-1	9.089586268e-1
1.197501117e1	2.208487505e-1	-7.973314427e-1	-3.881761819e-1	9.138885864e-1
1.198499217e1	2.658787429e-2	-7.512170841e-1	-3.345268089e-1	8.227649776e-1
1.199497317e1	-1.548325163e-1	-6.507725903e-1	-1.820916510e-1	6.932787620e-1
1.200495417e1	-4.090320307e-1	-5.643117859e-1	7.934233099e-2	7.014628995e-1
1.201493517e1	-6.470622396e-1	-5.538567451e-1	3.751310438e-1	9.306826183e-1
1.202491617e1	-8.841528010e-1	-5.547687645e-1	6.558584985e-1	1.232738791e0
1.203489721e1	-1.097935191e0	-5.677125996e-1	8.587399247e-1	1.505055992e0
1.204487821e1	-1.169077095e0	-5.711735666e-1	9.143080616e-1	1.590264044e0
1.205485921e1	-1.143910679e0	-5.115540402e-1	7.574728739e-1	1.464235067e0
1.206484121e1	-9.762517101e-1	-4.368966445e-1	4.991689065e-1	1.180303214e0
1.207482221e1	-7.331414402e-1	-3.948028314e-1	1.773647618e-1	8.513659059e-1
1.208480321e1	-5.349208295e-1	-3.783496436e-1	-1.657615471e-1	6.758443883e-1
1.209478421e1	-3.549043554e-1	-3.638898448e-1	-4.176245141e-1	6.578625657e-1
1.210476521e1	-1.504833573e-1	-3.753744341e-1	-5.543613598e-1	6.861980209e-1
1.211474621e1	-2.701589048e-2	-3.577036368e-1	-6.189707538e-1	7.154065587e-1
1.212472721e1	6.105370224e-2	-3.942691999e-1	-5.596764788e-1	6.873234446e-1
1.213470821e1	1.308934307e-1	-4.713442730e-1	-3.308918872e-1	5.905827249e-1
1.214468921e1	8.467937708e-2	-5.043611609e-1	-6.726987720e-2	5.158255654e-1
1.215467021e1	-5.800262511e-2	-4.862890253e-1	1.564586270e-1	5.141212139e-1
1.216465121e1	-2.879478890e-1	-4.383364483e-1	2.664982554e-1	5.882806718e-1
1.217463221e1	-4.869631362e-1	-3.454980127e-1	2.919073310e-1	6.646140705e-1
1.218461321e1	-5.563719249e-1	-2.853835195e-1	2.952706495e-1	6.915043228e-1
1.219459421e1	-5.314575237e-1	-2.371965422e-1	2.185958183e-1	6.216859584e-1
1.220457521e1	-4.944417250e-1	-1.259470517e-1	3.149924308e-2	5.112019969e-1
1.221455621e1	-4.811246914e-1	4.131649889e-2	-2.095340958e-1	5.263958197e-1
1.222453721e1	-5.198467076e-1	1.933018597e-1	-4.094305184e-1	6.893762092e-1
1.223451921e1	-4.893137169e-1	2.487550988e-1	-5.030771855e-1	7.445761662e-1
1.224450021e1	-3.860869718e-1	2.277347971e-1	-5.476522645e-1	7.077070654e-1
1.225448121e1	-4.158487147e-1	2.499062694e-1	-6.397757319e-1	8.029298127e-1
1.226446221e1	-4.161732352e-1	3.017795507e-1	-7.174513140e-1	8.826139852e-1
1.227444321e1	-3.601726967e-1	2.654461221e-1	-7.208464998e-1	8.484136323e-1
1.228442421e1	-3.033781064e-1	2.241328757e-1	-7.769481951e-1	8.636679450e-1
1.229440521e1	-2.545310515e-1	2.914233643e-1	-8.451694143e-1	9.295294359e-1
1.230438621e1	-1.532151765e-1	3.825757553e-1	-8.287516022e-1	9.255637833e-1
1.231436721e1	-2.084532380e-2	4.351397390e-1	-7.354964063e-1	8.548310263e-1
1.232434821e1	1.616749281e-1	4.526482395e-1	-5.942890719e-1	7.643354709e-1
1.233432921e1	4.624299735e-1	4.322728857e-1	-3.871730921e-1	7.420271769e-1
1.234431021e1	6.782243907e-1	4.317987496e-1	-2.130479801e-1	8.317619408e-1
1.235429121e1	7.441932625e-1	4.782263727e-1	-4.057675302e-2	8.855340470e-1
1.236427221e1	7.427577710e-1	4.674729046e-1	1.397835374e-1	8.886841173e-1
1.237425321e1	7.467215985e-1	4.578282879e-1	2.387020540e-1	9.078428044e-1
1.238423521e1	8.009732348e-1	5.316905718e-1	2.451635197e-1	9.921482441e-1
1.239421621e1	8.107129419e-1	5.502649467e-1	1.818308651e-1	9.965487691e-1
1.240419721e1	7.587347031e-1	5.101779711e-1	9.706319511e-2	9.194461244e-1
1.241417821e1	7.102016437e-1	4.862950187e-1	-6.470528841e-3	8.607619228e-1
1.242415921e1	6.707855630e-1	5.126277717e-1	-1.034533247e-1	8.505545804e-1
1.243414021e1	6.249556714e-1	5.985975562e-1	-1.266895750e-1	8.746078401e-1
1.244412121e1	6.236891645e-1	7.183390675e-1	-1.844211817e-2	9.514931958e-1
1.245410221e1	5.530004203e-1	8.905097477e-1	1.948882824e-1	1.066207540e0
1.246408321e1	3.866354406e-1	1.135749574e0	4.243409184e-1	1.272587629e0
1.247406421e1	1.369897377e-1	1.334324672e0	6.161968347e-1	1.476105368e0
1.248404521e1	-1.093645674e-1	1.407153058e0	7.788450319e-1	1.612029752e0
1.249402621e1	-2.985073757e-1	1.381702614e0	8.099294150e-1	1.629169857e0
1.250400721e1	-2.548146415e-1	1.358207770e0	6.714030290e-1	1.536372636e0
1.251398821e1	-2.583299875e-3	1.371559595e0	4.117021617e-1	1.432019925e0
1.252396921e1	3.271996629e-1	1.382868548e0	1.425065857e-1	1.428178269e0
1.253395021e1	6.180501097e-1	1.440985925e0	-3.310021073e-2	1.568286325e0
1.254393221e1	7.131439626e-1	1.553926796e0	1.350414455e-3	1.709755720e0
1.255391321e1	5.204746985e-1	1.567744497e0	2.853938252e-1	1.676355080e0
1.256389421e1	1.248292834e-1	1.511080446e0	6.220072129e-1	1.638853086e0
1.257387521e1	-2.015886068e-1	1.392869480e0	8.570845780e-1	1.647821995e0
1.258385621e1	-4.006658345e-1	1.330956822e0	8.920523894e-1	1.651586097e0
1.259383721e1	-4.099857116e-1	1.359087776e0	8.465326926e-1	1.652823483e0
1.260381821e1	-2.279379147e-1	1.437754900e0	7.477223495e-1	1.636515676e0
1.261379921e1	-1.737207770e-3	1.582525381e0	5.948547900e-1	1.690633556e0
1.262378021e1	1.810368133e-1	1.750248231e0	4.293028656e-1	1.811199643e0
1.263376121e1	1.953975749e-1	1.878979069e0	2.803877315e-1	1.909806229e0
1.264374221e1	1.121086657e-2	2.002783043e0	1.624581626e-1	2.009392509e0
1.265372321e1	-2.846681857e-1	2.110260275e0	1.365237147e-1	2.133746266e0
1.266370421e1	-5.863845134e-1	2.128263414e0	2.555160150e-1	2.222305197e0
1.267368521e1	-8.248556024e-1	2.127077014e0	4.479130912e-1	2.324966564e0
1.268366621e1	-9.993242383e-1	2.075772374e0	6.921357939e-1	2.405521116e0
1.269364721e1	-9.898575962e-1	2.011481215e0	9.093180478e-1	2.419242454e0
1.270362921e1	-8.091868186e-1	1.923442612e0	1.053988688e0	2.337799594e0
1.271361021e1	-5.858933473e-1	1.824236266e0	1.075869846e0	2.197408677e0
1.272359121e1	-3.841644073e-1	1.713908224e0	9.920538104e-1	2.017234358e0
1.273357221e1	-1.924745518e-1	1.636982255e0	8.862446424e-1	1.871413082e0
1.274355321e1	-1.558850151e-1	1.590307294e0	7.909054989e-1	1.782949505e0
1.275353421e1	-2.702162075e-1	1.531982780e0	7.296801808e-1	1.718261099e0
1.276351521e1	-4.157282621e-1	1.462506895e0	6.940984118e-1	1.671385357e0
1.277349621e1	-5.202753085e-1	1.485664646e0	6.398587623e-1	1.699207189e0
1.278347721e1	-5.519619548e-1	1.492976297e0	6.030484933e-1	1.702147969e0
1.279345821e1	-5.578366524e-1	1.441817399e0	5.543847486e-1	1.642364635e0
1.280343921e1	-4.884623623e-1	1.465191498e0	4.748640776e-1	1.615820997e0
1.281342021e1	-4.498964667e-1	1.550777778e0	3.375661916e-1	1.649627073e0
1.282340121e1	-4.232103592e-1	1.633665568e0	1.610492760e-1	1.695260176e0
1.283338221e1	-3.830522668e-1	1.731520915e0	1.824418992e-2	1.773478663e0
1.284336321e1	-3.982257915e-1	1.848750133e0	-2.397855431e-2	1.891305318e0
1.285334421e1	-4.457203853e-1	1.900782459e0	9.916263789e-2	1.954859035e0
1.286332621e1	-4.892926669e-1	1.861382166e0	3.211191434e-1	1.951222280e0
1.287330721e1	-5.109121621e-1	1.814537782e0	5.486962849e-1	1.963325295e0
1.288328821e1	-4.405549550e-1	1.823198824e0	7.526392731e-1	2.021041438e0
1.289326921e1	-2.541632617e-1	1.863911379e0	9.111964658e-1	2.090225727e0
1.290325021e1	-4.986505508e-2	1.929602215e0	1.024942644e0	2.185488196e0
1.291323121e1	6.773180723e-2	1.961927670e0	1.113794010e0	2.257052254e0
1.292321221e1	1.060971433e-1	1.996285471e0	1.206365374e0	2.334893937e0
1.293319321e1	1.076694596e-1	2.018410019e0	1.293969236e0	2.399985021e0
1.294317421e1	4.231629968e-2	2.053328275e0	1.364335798e0	2.465635789e0
1.295315521e1	-2.640719533e-2	2.096282945e0	1.418437454e0	2.531217955e0
1.296313621e1	-9.871094048e-2	2.074469761e0	1.431160702e0	2.522179532e0
1.297311721e1	-2.012021059e-1	2.083027599e0	1.360541540e0	2.496108882e0
1.298309821e1	-2.593181670e-1	2.121259765e0	1.240597021e0	2.471046311e0
1.299307921e1	-2.402609217e-1	2.176589189e0	1.117959274e0	2.458678252e0
1.300306021e1	-1.766812223e-1	2.178079937e0	1.016309523e0	2.410006953e0
1.301304221e1	-4.642279923e-2	2.145128684e0	9.214407876e-1	2.335119969e0
1.302302321e1	1.207648838e-1	2.158048984e0	8.603385535e-1	2.326358098e0
1.303300433e1	2.516091979e-1	2.119581760e0	8.815703782e-1	2.309350636e0
1.304298533e1	3.508072114e-1	2.086409921e0	9.308352166e-1	2.311412178e0
1.305296633e1	3.950039756e-1	2.142847393e0	1.045807264e0	2.416926958e0
1.306294733e1	3.590997326e-1	2.279890340e0	1.223928655e0	2.612442140e0
1.307292833e1	2.159382588e-1	2.452469887e0	1.562103834e0	2.915717110e0
1.308290933e1	-1.354238534e-1	2.527106671e0	2.044327218e0	3.253287802e0
1.309289033e1	-6.341574347e-1	2.464664840e0	2.553926387e0	3.605449822e0
1.310287133e1	-1.078225397e0	2.247689577e0	2.877534983e0	3.807214995e0
1.311285233e1	-1.352884319e0	2.012085963e0	2.910998306e0	3.788495353e0
1.312283333e1	-1.323969253e0	1.826610090e0	2.746768729e0	3.554453186e0
1.313281433e1	-9.449948341e-1	1.648661337e0	2.477884810e0	3.122661136e0
1.314279533e1	-3.341742218e-1	1.511559041e0	2.175301925e0	2.669910412e0
1.315277633e1	2.192238092e-1	1.473975770e0	1.938123655e0	2.444787711e0
1.316275733e1	5.472490990e-1	1.465173663e0	1.840456443e0	2.415263000e0
1.317273933e1	6.588052028e-1	1.494100716e0	1.894481499e0	2.501084044e0
1.318272033e1	5.562140501e-1	1.657811645e0	2.093723911e0	2.727891738e0
1.319270133e1	1.706375402e-1	1.935731851e0	2.418431198e0	3.102415902e0
1.320268233e1	-5.405592996e-1	2.138095507e0	2.836895372e0	3.593275957e0
1.321266333e1	-1.309682751e0	2.151855759e0	3.301984367e0	4.153173832e0
1.322264433e1	-1.923055673e0	2.156843142e0	3.618130454e0	4.630440955e0
1.323262533e1	-2.348014349e0	2.209050884e0	3.779376196e0	4.967570998e0
1.324260633e1	-2.534689048e0	2.224471453e0	3.730821502e0	5.029110348e0
1.325258733e1	-2.375232553e0	2.158729454e0	3.410383559e0	4.683220960e0
1.326256833e1	-1.980506905e0	2.117912088e0	2.973893588e0	4.153552972e0
1.327254933e1	-1.421952800e0	2.114900772e0	2.491564078e0	3.564077243e0
1.328253033e1	-8.616334194e-1	2.130229832e0	2.045042040e0	3.076115770e0
1.329251133e1	-4.809937137e-1	2.154816497e0	1.851312675e0	2.881310068e0
1.330249233e1	-3.033564717e-1	2.157514402e0	1.893089862e0	2.886292218e0
1.331247333e1	-3.367119133e-1	2.083361475e0	2.161536702e0	3.020928808e0
1.332245433e1	-5.469497216e-1	1.934774078e0	2.650414801e0	3.326740649e0
1.333243633e1	-7.710278893e-1	1.771823579e0	3.106334192e0	3.658299457e0
1.334241733e1	-8.059269959e-1	1.730496336e0	3.365717556e0	3.869391497e0
1.335239833e1	-6.638630444e-1	1.717333377e0	3.433167527e0	3.895713970e0
1.336237933e1	-5.000456965e-1	1.681730850e0	3.328311163e0	3.762435322e0
1.337236033e1	-3.709093541e-1	1.625801063e0	3.066611718e0	3.490689083e0
1.338234133e1	-3.017022943e-1	1.556638442e0	2.725267055e0	3.152971303e0
1.339232233e1	-2.963158393e-1	1.472880001e0	2.351613018e0	2.790566674e0
1.340230333e1	-3.812033772e-1	1.414335339e0	1.955228223e0	2.443067308e0
1.341228433e1	-5.022693926e-1	1.379522187e0	1.548996131e0	2.134184861e0
1.342226533e1	-6.670503616e-1	1.345627339e0	1.233314021e0	1.943381742e0
1.343224633e1	-8.709263992e-1	1.373075924e0	1.077495080e0	1.950601428e0
1.344222733e1	-1.091489806e0	1.366577328e0	1.100907331e0	2.066610883e0
1.345220833e1	-1.361623567e0	1.295241590e0	1.380919379e0	2.332082298e0
1.346218933e1	-1.507836703e0	1.175046225e0	1.735940971e0	2.582207623e0
1.347217033e1	-1.565908910e0	1.026681314e0	2.018535442e0	2.753294493e0
1.348215133e1	-1.573393346e0	8.836408773e-1	2.229110927e0	2.867982452e0
1.349213333e1	-1.457804418e0	7.647088033e-1	2.193273634e0	2.742338876e0
1.350211433e1	-1.342061707e0	5.732735941e-1	2.194125281e0	2.635139084e0
1.351209533e1	-1.202750040e0	3.858814421e-1	2.145658003e0	2.489851484e0
1.352207633e1	-9.957241076e-1	2.816077713e-1	2.097112957e0	2.338514954e0
1.353205733e1	-7.436307603e-1	1.838572177e-1	2.108308913e0	2.243157742e0
1.354203833e1	-5.322860742e-1	1.462920731e-1	2.166536071e0	2.235756781e0
1.355201933e1	-3.839661866e-1	1.650370771e-1	2.210071515e0	2.249240621e0
1.356200033e1	-2.301212651e-1	3.361321985e-1	2.235256935e0	2.272072670e0
1.357198133e1	1.017672801e-1	6.634119317e-1	2.113018845e0	2.217052235e0
1.358196233e1	6.196446455e-1	1.111834608e0	2.083331362e0	2.441394119e0
1.359194333e1	8.965582538e-1	1.491971453e0	2.273344821e0	2.863196150e0
1.360192433e1	6.757176894e-1	1.549351349e0	2.646790112e0	3.140474789e0
1.361190533e1	1.385544527e-1	1.320557987e0	3.117846483e0	3.388810621e0
1.362188633e1	-4.982459235e-1	1.071644356e0	3.402883336e0	3.602261182e0
1.363186733e1	-9.125796247e-1	8.872755066e-1	3.456498210e0	3.683400504e0
1.364184933e1	-1.122125123e0	6.245142066e-1	3.351859070e0	3.589448706e0
1.365182933e1	-1.238323331e0	2.844670415e-1	3.095850427e0	3.346439307e0
1.366181133e1	-1.287624130e0	-9.392703186e-2	2.718911717e0	3.009863636e0
1.367179233e1	-1.056808215e0	-4.093059728e-1	2.042347935e0	2.335714039e0
1.368177333e1	-5.077371240e-1	-4.304296240e-1	1.172401822e0	1.348181249e0
1.369175433e1	1.379632992e-1	-2.571392021e-1	2.709152421e-1	3.981827590e-1
1.370173533e1	6.705966979e-1	-4.406752934e-3	-3.378851572e-1	7.509232519e-1
1.371171633e1	1.023948033e0	3.150541189e-1	-6.236189979e-1	1.239608538e0
1.372169733e1	9.848161268e-1	5.517125711e-1	-4.539667135e-1	1.216690323e0
1.373167833e1	4.788086092e-1	6.032893986e-1	1.290351856e-1	7.809390897e-1
1.374165933e1	-1.127115136e-1	4.699851608e-1	8.057474864e-1	9.395844552e-1
1.375164033e1	-5.910342193e-1	3.877896810e-1	1.315173286e0	1.493111870e0
1.376162133e1	-7.076686299e-1	3.712952338e-1	1.528368324e0	1.724692661e0
1.377160233e1	-6.448835671e-1	3.599961108e-1	1.413065616e0	1.594436092e0
1.378158333e1	-4.505893618e-1	3.458008254e-1	1.061394479e0	1.203813617e0
1.379156433e1	-2.213001555e-1	4.296177381e-1	5.533319575e-1	7.346573452e-1
1.380154533e1	-4.839915812e-2	5.771487997e-1	1.274690089e-1	5.930358874e-1
1.381152733e1	-1.015140957e-1	5.918481151e-1	-3.290257484e-2	6.013916215e-1
1.382150833e1	-4.417056870e-1	4.607795969e-1	8.747726977e-2	6.442623872e-1
1.383148933e1	-9.011313611e-1	2.615243214e-1	4.405251342e-1	1.036578552e0
1.384147033e1	-1.275101733e0	2.233425514e-1	8.276496944e-1	1.536479854e0
1.385145133e1	-1.434528991e0	3.480994024e-1	1.116839532e0	1.851047584e0
1.386143233e1	-1.347712457e0	4.774617031e-1	1.392502128e0	1.995835845e0
1.387141333e1	-1.052201194e0	6.151118839e-1	1.625735866e0	2.031872804e0
1.388139433e1	-6.863110900e-1	7.497302833e-1	1.809670267e0	2.075578205e0
1.389137533e1	-4.891903406e-1	8.796127304e-1	1.901066926e0	2.151065132e0
1.390135633e1	-4.217269206e-1	1.052972442e0	1.838989084e0	2.160667816e0
1.391133733e1	-5.000761020e-1	1.214634798e0	1.705697710e0	2.152862857e0
1.392131833e1	-7.754746968e-1	1.284351735e0	1.597241215e0	2.191369409e0
1.393129933e1	-1.158721676e0	1.232607970e0	1.549220664e0	2.293914339e0
1.394128033e1	-1.466395147e0	1.106892833e0	1.477914746e0	2.357914008e0
1.395126133e1	-1.482096090e0	9.827587840e-1	1.414625654e0	2.272353271e0
1.396124233e1	-1.330124617e0	8.505883214e-1	1.396374739e0	2.107746285e0
1.397122433e1	-1.203516026e0	6.548940003e-1	1.366054003e0	1.934797280e0
1.398120533e1	-9.978653580e-1	4.404510207e-1	1.236346387e0	1.648722161e0
1.399118633e1	-6.568633425e-1	3.587715577e-1	9.454974023e-1	1.205882175e0
1.400116733e1	-3.604241270e-1	3.922411662e-1	5.455569148e-1	7.624900203e-1
1.401114833e1	-2.158265769e-1	3.821979886e-1	1.957226801e-1	4.805869134e-1
1.402112933e1	-2.657617986e-1	3.321347129e-1	-4.732736349e-2	4.279984585e-1
1.403111067e1	-3.924276924e-1	3.195140827e-1	-1.307399413e-1	5.226678439e-1
1.404109167e1	-4.487919277e-1	3.022729643e-1	-7.207716554e-2	5.458738473e-1
1.405107267e1	-4.034274745e-1	3.019202310e-1	1.034474775e-1	5.144034736e-1
1.406105367e1	-3.037096435e-1	3.072837541e-1	3.108189806e-1	5.322323663e-1
1.407103467e1	-2.306276339e-1	3.504350361e-1	5.749605158e-1	7.117397100e-1
1.408101567e1	-1.851327878e-1	3.113244724e-1	8.701721084e-1	9.425479163e-1
1.409099667e1	-1.605493391e-1	2.179389019e-1	1.109303056e0	1.141852322e0
1.410097767e1	-1.031197411e-1	2.019024561e-1	1.181318241e0	1.202876165e0
1.411095867e1	-1.018965036e-1	2.283958979e-1	1.117677146e0	1.145316456e0
1.412093967e1	-8.886189044e-2	2.104397564e-1	9.342178309e-1	9.617402364e-1
1.413092167e1	-2.644578695e-2	1.372676815e-1	7.051505265e-1	7.188734666e-1
1.414090267e1	-1.781822026e-2	1.129202592e-1	4.377295804e-1	4.524109409e-1
1.415088367e1	-1.573719621e-2	1.166616002e-1	2.278051829e-1	2.564230677e-1
1.416086467e1	-6.714006901e-2	7.663753694e-2	1.213627616e-1	1.584614175e-1
1.417084567e1	-1.467604351e-1	-2.874586232e-2	1.582981610e-1	2.177688171e-1
1.418082667e1	-9.748477936e-2	-1.312489597e-1	2.900537637e-1	3.329575911e-1
1.419080767e1	9.101425052e-2	-2.204425334e-1	4.150379983e-1	4.786805243e-1
1.420078867e1	4.530410993e-1	-2.819294230e-1	4.946820456e-1	7.276268023e-1
1.421076967e1	8.440186822e-1	-3.113651471e-1	4.613546705e-1	1.011021228e0
1.422075067e1	1.172745053e0	-2.846489813e-1	3.956585714e-1	1.270000672e0
1.423073167e1	1.392498035e0	-2.691790211e-1	3.732628584e-1	1.466571950e0
1.424071267e1	1.446463158e0	-3.165676707e-1	3.569371399e-1	1.523113548e0
1.425069367e1	1.356811894e0	-3.029478975e-1	3.402249205e-1	1.431247337e0
1.426067467e1	1.115220730e0	-1.663251639e-1	2.730348578e-1	1.160141962e0
1.427065567e1	7.181275445e-1	8.997728337e-2	2.157947096e-1	7.552287325e-1
1.428063667e1	2.247201920e-1	2.003074453e-1	3.596189654e-1	4.689861806e-1
1.429061867e1	-3.158630812e-1	7.532620747e-2	6.968311080e-1	7.687763763e-1
1.430059967e1	-8.050861663e-1	-1.883870191e-1	1.029159364e0	1.320159990e0
1.431058067e1	-9.627212530e-1	-4.223902872e-1	1.219994649e0	1.610475926e0
1.432056167e1	-6.870443308e-1	-5.704323224e-1	1.172757332e0	1.474036196e0
1.433054267e1	-5.911418080e-2	-5.631254955e-1	9.343876925e-1	1.092559001e0
1.434052367e1	6.206831110e-1	-5.361466252e-1	6.497274005e-1	1.046349092e0
1.435050467e1	1.074638130e0	-6.495531535e-1	4.537304860e-1	1.335154584e0
1.436048567e1	1.224330944e0	-8.029298593e-1	3.414803177e-1	1.503426562e0
1.437046667e1	1.123104531e0	-8.281915851e-1	2.299046257e-1	1.414256422e0
1.438044767e1	7.223696995e-1	-7.465659895e-1	1.099937278e-1	1.044642226e0
1.439042867e1	1.840235710e-1	-6.496288750e-1	9.055465937e-2	6.812360062e-1
1.440040967e1	-3.533267766e-1	-5.562244289e-1	2.050165370e-1	6.901139086e-1
1.441039067e1	-8.605516845e-1	-4.841955759e-1	4.056163797e-1	1.067482649e0
1.442037167e1	-1.363584723e0	-3.649364964e-1	5.941227186e-1	1.531510284e0
1.443035267e1	-1.731185138e0	-2.400774653e-1	7.646737200e-1	1.907711999e0
1.444033367e1	-1.883091708e0	-1.104902660e-1	8.918518299e-1	2.086538321e0
1.445031567e1	-1.807704141e0	-2.694495644e-2	9.332033390e-1	2.034548786e0
1.446029667e1	-1.512944831e0	8.592848852e-4	8.600821531e-1	1.740328736e0
1.447027767e1	-1.117076637e0	-1.047079179e-2	6.147315225e-1	1.275093994e0
1.448025867e1	-6.890382314e-1	-5.697695039e-2	2.981483567e-1	7.529359201e-1
1.449023967e1	-2.905113083e-1	-1.047525395e-1	-3.405798465e-2	3.106925508e-1
1.450022067e1	3.981719971e-2	-1.240003674e-1	-2.964488634e-1	3.237953507e-1
1.451020167e1	2.162972778e-1	-1.359760498e-1	-4.702073550e-1	5.351345207e-1
1.452018267e1	2.573932636e-1	-1.213536253e-1	-5.628044468e-1	6.306558807e-1
1.453016367e1	2.220357352e-1	-9.738716740e-2	-6.209927210e-1	6.666453987e-1
1.454014467e1	1.215653676e-1	-5.456058852e-2	-6.278582293e-1	6.418418438e-1
1.455012567e1	-4.291154623e-2	8.624971993e-3	-5.700079241e-1	5.716859492e-1
1.456010667e1	-2.093408453e-1	4.343337368e-2	-4.786329004e-1	5.242132208e-1
1.457008767e1	-3.648709345e-1	1.077946265e-1	-4.018390784e-1	5.533761155e-1
1.458006867e1	-5.635897279e-1	2.006900360e-1	-3.464773482e-1	6.913439265e-1
1.459004967e1	-8.053487062e-1	2.565788561e-1	-2.697072074e-1	8.872210693e-1
1.460003067e1	-1.092056985e0	2.982551049e-1	-2.032264119e-1	1.150150226e0
1.461001267e1	-1.312769496e0	3.953419447e-1	-1.198886785e-1	1.376238460e0
1.461999367e1	-1.231018404e0	5.658572781e-1	8.407126665e-3	1.354869533e0
1.462997467e1	-9.383459651e-1	6.372575554e-1	2.238068569e-1	1.156148715e0
1.463995567e1	-5.773090500e-1	5.841434949e-1	4.177847278e-1	9.214409588e-1
1.464993667e1	-2.003361332e-1	4.270570597e-1	5.505244169e-1	7.249754700e-1
1.465991767e1	7.781825423e-2	3.084103298e-1	5.339621785e-1	6.215208929e-1
1.466989867e1	3.373135918e-1	2.654459028e-1	3.706427211e-1	5.671137569e-1
1.467987967e1	5.316580832e-1	2.700505120e-1	1.553768921e-1	6.162220177e-1
1.468986067e1	5.856617975e-1	2.158724410e-1	-3.269733757e-2	6.250358132e-1
1.469984167e1	5.107484400e-1	1.033823907e-1	-1.955417088e-1	5.565864242e-1
1.470982267e1	4.813047856e-1	9.422481045e-2	-3.750772494e-1	6.174265580e-1
1.471980367e1	5.363861418e-1	1.349328335e-1	-4.884687942e-1	7.379151208e-1
1.472978467e1	6.332277274e-1	1.771764815e-1	-4.836448413e-1	8.162604933e-1
1.473976567e1	7.681358564e-1	2.085125507e-1	-2.939041552e-1	8.484632167e-1
1.474974667e1	8.878248525e-1	2.315199190e-1	7.761594057e-3	9.175481916e-1
1.475972767e1	1.005459137e0	3.222132671e-1	2.352244225e-1	1.081711604e0
1.476970967e1	1.095313300e0	5.331014684e-1	3.934398454e-1	1.280118476e0
1.477969067e1	1.062100530e0	7.115315929e-1	4.947326240e-1	1.370800902e0
1.478967167e1	9.401281965e-1	8.403811294e-1	6.567174545e-1	1.421745154e0
1.479965267e1	6.905134839e-1	8.555966078e-1	7.713918784e-1	1.343093391e0
1.480963367e1	4.079883027e-1	8.138716078e-1	7.634969679e-1	1.188178888e0
1.481961467e1	2.401948482e-1	8.390887485e-1	6.368415990e-1	1.080430801e0
1.482959567e1	2.256376201e-1	8.855055544e-1	4.026617816e-1	9.985834631e-1
1.483957667e1	3.129353803e-1	9.477744542e-1	8.785967767e-2	1.001960224e0
1.484955767e1	4.278559721e-1	9.748371224e-1	-2.568763697e-1	1.095150043e0
1.485953867e1	4.822643137e-1	9.529473397e-1	-5.839807230e-1	1.217259621e0
1.486951967e1	5.574858195e-1	8.925220670e-1	-8.228792435e-1	1.335857900e0
1.487950067e1	6.631970465e-1	8.258409313e-1	-9.409558699e-1	1.416771511e0
1.488948167e1	7.409088814e-1	8.071879479e-1	-9.619073206e-1	1.458000016e0
1.489946267e1	7.582645869e-1	9.071326509e-1	-7.320480108e-1	1.390593082e0
1.490944367e1	6.214338934e-1	9.318899082e-1	-1.644485548e-1	1.132096379e0
1.491942467e1	2.791408128e-1	7.702657047e-1	6.300904039e-1	1.033558303e0
1.492940567e1	-1.880622429e-1	4.726599696e-1	1.400480070e0	1.490006470e0
1.493938767e1	-5.768915588e-1	1.690666857e-1	1.877652628e0	1.971539197e0
1.494936867e1	-7.028440922e-1	-1.139710039e-2	1.839541061e0	1.969271700e0
1.495934967e1	-5.258523828e-1	-1.253719415e-1	1.356763654e0	1.460495281e0
1.496933067e1	-1.181465006e-1	-1.429253925e-1	8.447875911e-1	8.649001893e-1
1.497931167e1	3.321522546e-1	-9.867733726e-2	3.205785683e-1	4.720518568e-1
1.498929267e1	7.610040075e-1	1.013676046e-1	-7.682919770e-2	7.715602480e-1
1.499927367e1	1.140900532e0	3.584945458e-1	-2.994084316e-1	1.232808895e0
1.500925467e1	1.157244084e0	6.221045691e-1	-3.636102748e-1	1.363246272e0
1.501923567e1	7.123756385e-1	8.785292414e-1	-3.441995654e-1	1.182271550e0
1.502921667e1	-2.252756774e-2	1.071026305e0	-2.315245968e-1	1.095996568e0
1.503919733e1	-8.024134040e-1	1.233395590e0	-5.053163767e-2	1.472306150e0
1.504917833e1	-1.544703982e0	1.272993519e0	1.815300259e-1	2.009869658e0
1.505915933e1	-2.114711614e0	1.205338018e0	4.336096323e-1	2.472420325e0
1.506914033e1	-2.394127831e0	1.058244876e0	6.042509732e-1	2.686419462e0
1.507912133e1	-2.234054455e0	9.039865565e-1	6.437214330e-1	2.494507624e0
1.508910233e1	-1.722300879e0	8.176269820e-1	4.909515220e-1	1.968722326e0
1.509908433e1	-1.031700856e0	8.134272194e-1	2.359088391e-1	1.334812151e0
1.510906533e1	-4.168269539e-1	8.154483095e-1	1.618918598e-2	9.159490950e-1
1.511904633e1	-8.721005201e-2	7.557646830e-1	-1.288454434e-1	7.716132435e-1
1.512902733e1	-4.122579396e-2	6.206945130e-1	-1.919041559e-1	6.509903606e-1
1.513900833e1	-2.620049626e-1	4.265198102e-1	-2.224003091e-1	5.477477945e-1
1.514898933e1	-5.919183183e-1	2.446966195e-1	-2.958012843e-1	7.055084202e-1
1.515897033e1	-8.462236673e-1	1.204169379e-1	-3.881156632e-1	9.387377174e-1
1.516895133e1	-1.001708148e0	7.429296792e-2	-5.227071655e-1	1.132325678e0
1.517893233e1	-9.891360497e-1	8.538900979e-2	-6.563338771e-1	1.190149388e0
1.518891333e1	-8.860116309e-1	1.360170169e-1	-7.690301880e-1	1.181069291e0
1.519889433e1	-8.038295996e-1	1.169422665e-1	-7.720207465e-1	1.120639796e0
1.520887533e1	-7.012039483e-1	6.161996853e-2	-7.430714741e-1	1.023542482e0
1.521885633e1	-4.941318226e-1	4.269490689e-2	-7.194922847e-1	8.738754264e-1
1.522883733e1	-1.886487186e-1	3.781123929e-2	-7.058761659e-1	7.316277677e-1
1.523881833e1	1.872079647e-1	5.936093330e-2	-7.015384090e-1	7.285099050e-1
1.524879933e1	5.885678637e-1	8.991672814e-2	-6.911327040e-1	9.122288982e-1
1.525878133e1	9.491036725e-1	1.750243407e-1	-6.632546416e-1	1.171041426e0
1.526876233e1	1.265034581e0	3.225419902e-1	-5.110247210e-1	1.401960090e0
1.527874333e1	1.335895234e0	4.586515027e-1	-1.981258857e-1	1.426264752e0
1.528872433e1	1.004660992e0	5.553211437e-1	2.030583045e-1	1.165743521e0
1.529870533e1	4.747319305e-1	5.928743380e-1	6.137687784e-1	9.765154888e-1
1.530868633e1	-4.063347101e-2	5.631903630e-1	9.202675438e-1	1.079688296e0
1.531866733e1	-3.570309877e-1	4.982625881e-1	1.020086532e0	1.190089604e0
1.532864833e1	-3.360236961e-1	4.491044614e-1	9.320099223e-1	1.087772603e0
1.533862933e1	1.801702559e-2	3.928717884e-1	6.685542655e-1	7.756530547e-1
1.534861033e1	5.380882663e-1	3.569069537e-1	2.966950312e-1	7.105979858e-1
1.535859133e1	1.011972935e0	3.586772713e-1	-1.149726319e-1	1.079795033e0
1.536857233e1	1.368971763e0	3.349212036e-1	-4.007734233e-1	1.465221907e0
1.537855333e1	1.514256946e0	2.901823659e-1	-4.864769402e-1	1.616737368e0
1.538853433e1	1.404265557e0	2.025253308e-1	-4.175379753e-1	1.478957817e0
1.539851533e1	1.237857893e0	1.674100965e-1	-1.991108492e-1	1.264896609e0
1.540849633e1	1.112128723e0	2.308398879e-1	5.219633996e-2	1.137032017e0
1.541847833e1	9.981623966e-1	3.391761493e-1	2.994221726e-1	1.095911615e0
1.542845933e1	8.462698603e-1	4.275084282e-1	5.119111589e-1	1.077492073e0
1.543844033e1	6.837646276e-1	4.277881444e-1	6.400069892e-1	1.029633774e0
1.544842133e1	5.497183782e-1	2.704017835e-1	6.849279311e-1	9.189307323e-1
1.545840233e1	5.104806376e-1	1.483029306e-2	6.451209641e-1	8.227949180e-1
1.546838333e1	5.800882316e-1	-2.776436332e-1	5.597071767e-1	8.525611222e-1
1.547836433e1	7.231257445e-1	-5.799696062e-1	5.160194126e-1	1.060920176e0
1.548834533e1	9.348002136e-1	-7.431659798e-1	5.552372727e-1	1.316979704e0
1.549832633e1	1.134711839e0	-7.188082335e-1	5.903229055e-1	1.467220967e0
1.550830733e1	1.244898525e0	-5.894266004e-1	5.755920151e-1	1.492816875e0
1.551828833e1	1.194411326e0	-4.418645120e-1	5.535064968e-1	1.388607974e0
1.552826933e1	9.119218129e-1	-3.986322460e-1	5.603915933e-1	1.142168025e0
1.553825033e1	5.115898544e-1	-4.095318945e-1	5.683929232e-1	8.674739575e-1
1.554823133e1	1.206496936e-1	-4.670919585e-1	5.058765399e-1	6.990295558e-1
1.555821233e1	-1.986293310e-1	-5.190655927e-1	3.160440525e-1	6.393485307e-1
1.556819333e1	-4.337733543e-1	-5.491199888e-1	5.330175608e-2	7.018070690e-1
1.557817533e1	-5.819663572e-1	-5.219765559e-1	-1.875745851e-1	8.039456392e-1
1.558815633e1	-7.081001544e-1	-4.122916342e-1	-3.446579871e-1	8.889203273e-1
1.559813733e1	-8.734541506e-1	-2.835180384e-1	-3.721910638e-1	9.908737655e-1
1.560811833e1	-1.094378915e0	-1.528368616e-1	-3.080517858e-1	1.147135658e0
1.561809933e1	-1.386459031e0	-3.532770753e-2	-1.371324098e-1	1.393672124e0
1.562808033e1	-1.677981323e0	2.011690691e-2	8.037085623e-2	1.680025442e0
1.563806133e1	-1.987041169e0	1.771706343e-2	3.099585629e-1	2.011149127e0
1.564804233e1	-2.164166780e0	-5.257523954e-3	4.928232157e-1	2.219576584e0
1.565802333e1	-2.190573975e0	-7.270289071e-2	6.017214677e-1	2.272876762e0
1.566800433e1	-1.951346841e0	-1.322032070e-1	5.997980261e-1	2.045724775e0
1.567798533e1	-1.429883963e0	-1.909115911e-1	4.461232585e-1	1.509980578e0
1.568796633e1	-7.956171852e-1	-1.972137201e-1	1.450472009e-1	8.324293648e-1
1.569794733e1	-1.898409659e-1	-1.878166598e-1	-2.234343892e-1	3.481919245e-1
1.570792833e1	2.386529374e-1	-1.921164829e-1	-5.359075472e-1	6.173012771e-1
1.571790933e1	5.184480536e-1	-2.097657187e-1	-7.195066103e-1	9.113066461e-1
1.572789033e1	5.583102769e-1	-2.344236463e-1	-7.599532628e-1	9.716963378e-1
1.573787233e1	4.157054579e-1	-2.024659815e-1	-7.060542136e-1	8.439881836e-1
1.574785333e1	1.270067865e-1	-1.658308366e-1	-5.064577532e-1	5.478412598e-1
1.575783433e1	-2.410233986e-1	-1.395689446e-1	-2.029311275e-1	3.446052981e-1
1.576781533e1	-5.536266571e-1	-6.960737474e-2	4.520336241e-2	5.598133672e-1
1.577779633e1	-7.473180145e-1	4.157567672e-2	1.244670483e-1	7.587521320e-1
1.578777733e1	-8.256543320e-1	1.880604156e-1	7.547673672e-2	8.501579463e-1
1.579775833e1	-8.202982825e-1	3.390277031e-1	-5.641042829e-2	8.893880999e-1
1.580773933e1	-7.563566405e-1	4.418712363e-1	-2.626934722e-1	9.145126666e-1
1.581772033e1	-6.366214514e-1	5.585102516e-1	-4.675304997e-1	9.673703229e-1
1.582770133e1	-5.820125502e-1	6.068844860e-1	-6.367462894e-1	1.054747944e0
1.583768233e1	-6.122724760e-1	5.396037915e-1	-7.441619799e-1	1.104457735e0
1.584766333e1	-6.187546992e-1	3.864237714e-1	-7.107846111e-1	1.018526127e0
1.585764433e1	-6.250556588e-1	2.610783982e-1	-6.134094670e-1	9.138532053e-1
1.586762533e1	-5.871733028e-1	1.920976987e-1	-4.805253518e-1	7.826740235e-1
1.587760633e1	-4.225010920e-1	1.469539779e-1	-3.196327811e-1	5.497888314e-1
1.588758733e1	-1.339760828e-1	7.395967662e-2	-1.667970890e-1	2.263645145e-1
1.589756933e1	2.147834337e-1	2.270181477e-3	-4.946919858e-2	2.204184174e-1
1.590755033e1	5.346191132e-1	-5.878527492e-2	-1.319599628e-2	5.380031962e-1
1.591753133e1	7.856909519e-1	-1.144622431e-1	-3.419714838e-2	7.947209083e-1
1.592751233e1	9.893477190e-1	-1.415850645e-1	-8.715567291e-2	1.003220490e0
1.593749333e1	1.152422470e0	-1.341007016e-1	-9.250207454e-2	1.163880227e0
1.594747433e1	1.190454515e0	-1.327926064e-1	-1.193276381e-1	1.203766968e0
1.595745533e1	1.225760003e0	-1.307435227e-1	-1.056378445e-1	1.237231106e0
1.596743633e1	1.230326094e0	-1.573515699e-1	-1.010308233e-1	1.244455319e0
1.597741733e1	1.163080775e0	-1.677774478e-1	-1.754319647e-1	1.188142473e0
1.598739833e1	1.087273963e0	-1.479222769e-1	-3.116115707e-1	1.140678501e0
1.599737933e1	1.009470327e0	-6.767187327e-2	-4.656804407e-1	1.113763034e0
1.600736033e1	9.676381767e-1	4.666107327e-2	-5.832702863e-1	1.130798445e0
1.601734133e1	9.807365245e-1	1.252051862e-1	-6.131007341e-1	1.163362789e0
1.602732233e1	9.791560221e-1	1.849646804e-1	-6.007844514e-1	1.163572261e0
1.603730396e1	9.527535045e-1	2.606858307e-1	-5.296530730e-1	1.120816096e0
1.604728596e1	9.174065012e-1	3.503159722e-1	-3.907071492e-1	1.056886013e0
1.605726696e1	8.851333791e-1	4.781934091e-1	-2.324592742e-1	1.032553800e0
1.606724796e1	8.251368535e-1	5.679344284e-1	-3.264412791e-2	1.002230503e0
