"Time (s)"	"Linear Acceleration x (m/s^2)"	"Linear Acceleration y (m/s^2)"	"Linear Acceleration z (m/s^2)"	"Absolute acceleration (m/s^2)"
1.235070060E-1	2.303995490E-1	-4.765968323E-1	-1.486935616E-1	5.498529512E-1
1.418456520E-1	-1.859171987E-1	-4.333257675E-1	-3.951902390E-1	6.152330863E-1
1.601843500E-1	-5.385524035E-2	2.147865295E-2	-3.383860588E-1	3.433174103E-1
1.785230480E-1	7.063906193E-1	6.558256149E-1	7.351779938E-2	9.666953041E-1
1.968617450E-1	5.975232720E-1	8.191595078E-1	-5.114712715E-1	1.135631640E0
2.152004430E-1	-1.655274034E-1	1.031211853E0	-2.473911285E0	2.685336898E0
2.335391410E-1	-1.448769569E-1	-5.211353302E-1	-1.709930897E0	1.793442231E0
2.518777870E-1	-1.147633195E-1	-1.033225060E0	9.930610657E-2	1.044311422E0
2.702164850E-1	-3.611648083E-1	-4.315843582E-1	4.353046417E-3	5.627823967E-1
2.885551830E-1	-5.992945433E-1	4.083929062E-1	-1.169145823E0	1.375805462E0
3.068938810E-1	-6.365978718E-1	9.792137146E-1	-1.841783285E0	2.180890189E0
3.252325790E-1	-4.646244049E-1	8.715667725E-1	-1.357530832E0	1.678807445E0
3.435712770E-1	-4.119709730E-1	4.194011688E-1	-2.877497673E-1	6.545359819E-1
3.619099230E-1	-3.443929553E-1	5.115509033E-3	2.968449593E-1	4.546972684E-1
3.802486200E-1	-6.751920581E-1	-3.759145737E-1	-8.851013184E-1	1.174989543E0
3.985873180E-1	-1.031656265E0	-7.596845627E-1	-1.829563618E0	2.233548369E0
4.169260160E-1	-1.005826950E0	-9.944911003E-1	-1.469601870E0	2.039713229E0
4.352647140E-1	-4.447400570E-1	-7.406520844E-2	-1.027011395E0	1.121620158E0
4.536033600E-1	5.317940563E-2	6.283063889E-1	-1.541047096E-1	6.491111068E-1
4.719420580E-1	7.796138525E-4	7.058515549E-1	-3.680238724E-1	7.960330370E-1
4.902807560E-1	-3.691288829E-1	3.973464966E-1	-1.071851254E0	1.201251631E0
5.086194540E-1	-6.613416076E-1	-7.530307770E-2	-1.525921822E0	1.664776466E0
5.269581520E-1	-8.739708066E-1	-2.587194443E-1	-1.767929792E0	1.989054165E0
5.452968500E-1	-6.696988344E-1	1.040153503E-1	-1.213158607E0	1.389629277E0
5.636354950E-1	-1.968178302E-1	9.198913574E-1	-2.303667068E-1	9.685071953E-1
5.819741930E-1	-2.335688025E-1	7.757978439E-1	3.276619911E-1	8.739445409E-1
6.003128910E-1	-4.732588232E-1	3.705024719E-1	-2.916226387E-1	6.680492188E-1
6.186515890E-1	-4.398575425E-1	3.250818253E-1	-1.032942533E0	1.168812700E0
6.369902870E-1	-5.788838863E-1	1.917600632E-1	-1.295819759E0	1.432140819E0
6.553289330E-1	-6.644700766E-1	2.514772415E-1	-1.243972063E0	1.432559869E0
6.736676310E-1	-2.972925603E-1	1.018462181E0	-5.727353096E-1	1.205683962E0
6.920063290E-1	3.301425278E-1	1.795750618E0	2.085003853E-1	1.837712377E0
7.103450270E-1	8.790208697E-1	2.545924187E0	5.943288803E-1	2.758194060E0
7.286837250E-1	1.113337636E0	2.653885841E0	5.375785828E-1	2.927733165E0
7.470223700E-1	1.067612410E0	2.168138504E0	-1.836571693E-1	2.423706002E0
7.653610680E-1	1.364984035E0	1.747807503E0	-3.232269287E-1	2.241090835E0
7.836997660E-1	1.719239950E0	1.813593864E0	7.512269020E-1	2.609454075E0
8.020384640E-1	1.810832739E0	1.657262802E0	1.382508039E0	2.817261735E0
8.203771100E-1	1.349605680E0	1.181078911E0	3.186025620E-1	1.821507748E0
8.387030480E-1	7.874624133E-1	-7.136726379E-2	-7.167294025E-1	1.067188538E0
8.570545060E-1	1.616774797E-1	-1.578240871E0	-1.488363743E0	2.175364449E0
8.753932040E-1	1.998972297E-1	-2.232607841E0	-1.693202496E0	2.809169160E0
8.937319020E-1	3.648144007E-1	-2.055372715E0	-1.852057695E0	2.790656599E0
9.120705480E-1	5.291146040E-2	-1.509481907E0	-2.335665226E0	2.781486527E0
9.304092450E-1	-2.960557044E-1	-1.212794304E0	-2.149551868E0	2.485777995E0
9.487479430E-1	-5.231702328E-2	-9.851360321E-1	-1.439787865E0	1.745342135E0
9.670866410E-1	2.890787125E-1	-5.790786743E-1	-8.534371853E-1	1.071099268E0
9.854252870E-1	1.846638322E-1	-9.428396225E-1	-7.344133854E-1	1.209301577E0
1.003763985E0	-2.606337667E-1	-1.530566692E0	-7.407536507E-1	1.720255891E0
1.022102683E0	-7.372164130E-1	-1.544545650E0	-1.877098560E0	2.540198479E0
1.040441381E0	-5.741302967E-1	-1.296629906E0	-2.059744835E0	2.500684605E0
1.058780027E0	2.488917112E-2	-6.523084641E-1	-8.466928005E-1	1.069118563E0
1.077118725E0	4.462996125E-1	-1.574401855E-1	-1.991152763E-2	4.736741761E-1
1.095457423E0	1.983558536E-1	-8.566274643E-1	4.707503319E-1	9.973773269E-1
1.113796120E0	-4.925468564E-1	-1.900215626E0	-3.418822289E-1	1.992562493E0
1.132134766E0	-8.527306318E-1	-2.091362953E0	-1.506568789E0	2.714902954E0
1.150473464E0	-3.896421790E-1	-9.511871338E-1	-1.513128400E0	1.829244529E0
1.168799350E0	6.882673502E-1	1.488125801E0	2.975106239E-1	1.666356179E0
1.187150860E0	7.037082911E-1	3.278542519E0	2.465462923E0	4.162037221E0
1.205489506E0	-2.181109190E-1	4.279596329E0	4.061665535E-1	4.304356907E0
1.223815443E0	-3.739857078E-1	6.189702988E0	-9.233368635E-1	6.269357172E0
1.242166902E0	1.287198544E0	8.256587029E0	1.470117569E0	8.484654095E0
1.260505600E0	2.385691404E0	1.007749748E1	4.579494476E0	1.132339387E1
1.278831485E0	1.140425205E0	9.574357033E0	5.366582870E0	1.103490344E1
1.297182943E0	-1.593828559E0	9.436253548E0	-1.124167442E-2	9.569916241E0
1.315521641E0	-2.455600262E0	1.078907204E1	-1.822781801E0	1.121412420E1
1.333847527E0	-1.284783363E0	1.249920082E1	3.585174084E-1	1.257017200E1
1.352198985E0	-2.250835150E-1	1.326423740E1	1.683459163E0	1.337253496E1
1.370537683E0	-1.116926312E0	1.023157310E1	4.731833935E-2	1.029246577E1
1.388863568E0	-2.731191158E0	5.125566483E0	-2.830837011E0	6.460996448E0
1.407215027E0	-2.941772699E0	-1.656026840E-1	-3.401771545E0	4.500388929E0
1.425553725E0	-1.789317608E0	-4.381722927E0	-1.324181676E0	4.914734013E0
1.443879662E0	3.817303479E-2	-6.504458427E0	-4.371260405E-1	6.519241964E0
1.462231120E0	1.580955625E0	-7.476059914E0	-1.103907585E0	7.720719168E0
1.480569766E0	2.128595591E0	-8.082186699E0	-1.824737787E0	8.554667090E0
1.498895704E0	1.590856075E0	-9.935446739E0	-1.712009549E0	1.020661068E1
1.517247162E0	6.635232568E-1	-1.140599632E1	-2.517698526E0	1.169939405E1
1.535585860E0	5.992479622E-3	-1.113562679E1	-3.616440296E0	1.170815359E1
1.553924506E0	-1.098319367E-1	-1.010258579E1	-3.698946714E0	1.075901992E1
1.572263204E0	-9.747251868E-2	-8.779771805E0	-3.447165966E0	9.432753947E0
1.590601902E0	-2.363792509E-1	-8.320100784E0	-2.389712334E0	8.659715772E0
1.608940600E0	-3.828554153E-1	-8.509650230E0	-1.546389341E0	8.657484930E0
1.627279245E0	-2.064296603E-1	-8.016585350E0	-1.121286631E0	8.097254941E0
1.645617943E0	1.042501628E-2	-7.781651974E0	-1.462378502E0	7.917876420E0
1.663956641E0	9.509046376E-2	-8.007966995E0	-1.153769851E0	8.091215141E0
1.682295339E0	1.460864693E-1	-8.402623177E0	-2.501940727E-1	8.407616462E0
1.700633985E0	1.039247811E-1	-8.325396538E0	-1.291542172E0	8.425622176E0
1.718959923E0	-3.903004229E-1	-8.413773537E0	-3.186129093E0	9.005295006E0
1.737311381E0	1.567104459E-1	-7.422751427E0	-3.506189346E0	8.210673580E0
1.755650079E0	1.515157700E0	-4.976682663E0	-3.079876423E0	6.045553073E0
1.773975964E0	2.917258501E0	-2.708048344E0	1.366056204E0	4.208328949E0
1.792327423E0	2.613513470E0	-1.987901688E0	3.027414083E0	4.466255905E0
1.810666120E0	4.085003436E-1	-1.541404724E-1	-1.750813127E0	1.804432991E0
1.828992006E0	-3.940245807E-1	5.093983650E0	-4.464732170E0	6.785112980E0
1.847343516E0	1.647677302E0	1.248011017E1	-4.920557737E-1	1.259802005E1
1.865682162E0	3.193117142E0	1.674797058E1	4.140277863E0	1.754515365E1
1.884008100E0	2.843812704E0	1.682192993E1	2.734144211E0	1.727831421E1
1.902359558E0	2.524476767E0	1.552156639E1	3.451378345E0	1.609981424E1
1.920698256E0	-5.482348800E-1	1.270099831E1	4.419567585E0	1.345914177E1
1.939024141E0	-4.329922676E0	1.181684399E1	2.305237293E0	1.279453599E1
1.957375600E0	-4.590646267E0	1.488314247E1	-2.255204916E-1	1.557667559E1
1.975714298E0	-2.153459787E0	1.729597855E1	-1.540071726E0	1.749743078E1
1.994052995E0	-9.348754883E-1	1.673351669E1	-1.498221755E0	1.682644471E1
2.012391641E0	-1.275605083E0	1.377868462E1	-2.147436619E0	1.400324256E1
2.030730339E0	-1.928145409E0	9.252648354E0	-2.784057379E0	9.852929603E0
2.049056277E0	-2.624499083E0	3.326303482E0	-3.568341732E0	5.539436163E0
2.067407735E0	-1.624513030E0	-3.075824261E0	-2.765386105E0	4.443770671E0
2.085746433E0	2.420722842E-1	-7.257301331E0	-2.661069632E-1	7.266211840E0
2.104072318E0	1.888813496E0	-9.752589226E0	1.985684037E0	1.013032843E1
2.122423777E0	2.515713930E0	-1.049268150E1	8.960125446E-1	1.082718893E1
2.140762475E0	1.720276833E0	-1.081747627E1	-2.809443474E0	1.130796701E1
2.159088360E0	7.828850746E-1	-1.205967712E1	-3.461694717E0	1.257107997E1
2.177439818E0	-7.968357205E-2	-1.126175308E1	-3.637672424E0	1.183495216E1
2.195778516E0	3.060338497E-1	-1.009855080E1	-1.854735136E0	1.027202158E1
2.214104454E0	1.059828639E0	-8.156606674E0	-1.153965950E0	8.305727337E0
2.232455912E0	7.791091204E-1	-6.384843826E0	-1.767379045E0	6.670597454E0
2.250794610E0	6.688917875E-1	-5.734763145E0	-1.386657953E0	5.937823241E0
2.269133256E0	4.668180645E-1	-6.188432693E0	-1.151196003E0	6.311883280E0
2.287471954E0	3.190045953E-1	-7.765727520E0	-1.479672194E-1	7.773685236E0
2.305810652E0	4.667103887E-1	-8.357761383E0	-1.099787474E0	8.442720321E0
2.324136589E0	6.946325302E-2	-9.260564804E0	-2.167788982E0	9.511161586E0
2.342488048E0	-4.629822671E-1	-9.615488052E0	-2.826333761E0	1.003295199E1
2.360826745E0	-4.839521646E-1	-9.388518333E0	-2.759209871E0	9.797536696E0
2.379165391E0	-3.532148600E-1	-9.053625107E0	-2.535156965E0	9.408501961E0
2.397504089E0	-5.549582839E-1	-8.413659096E0	-2.212584496E0	8.717406049E0
2.415842787E0	-2.471503913E-1	-7.052452087E0	7.712802887E-1	7.098805325E0
2.434168725E0	7.902394533E-1	-3.738469124E0	2.516779423E0	4.575457184E0
2.452520183E0	4.538119137E-1	2.330176353E0	3.213040829E-1	2.395600844E0
2.470858881E0	-2.012404919E0	9.021536827E0	-4.328058243E0	1.020636999E1
2.489184766E0	-2.691577196E0	1.510802841E1	-3.183584213E0	1.567266151E1
2.507536225E0	1.077354908E0	1.915718079E1	5.919997215E0	2.007995608E1
2.525874923E0	4.019876003E0	2.211087799E1	7.250651836E0	2.361402720E1
2.544200860E0	3.447546482E0	2.049558067E1	5.823455811E0	2.158395333E1
2.562552318E0	7.842355967E-1	1.708618355E1	4.088902473E0	1.758612570E1
2.580891016E0	-2.970348120E0	1.473089218E1	-1.089030623E0	1.506678931E1
2.599216902E0	-5.505740166E0	1.366754532E1	-6.705126762E0	1.618869033E1
2.617568360E0	-4.828555107E0	1.288911247E1	-6.748486042E0	1.532926054E1
2.635907058E0	-2.393094540E0	1.162251568E1	-4.308644295E0	1.262434901E1
2.654232995E0	-7.664360404E-1	9.608421326E0	-3.049080372E0	1.010970206E1
2.672584454E0	-2.377259731E-1	5.768233299E0	-1.042061448E0	5.866423194E0
2.690923152E0	2.602207065E-1	1.131298065E0	4.536723495E-1	1.246342140E0
2.709249037E0	6.447820067E-1	-4.237765312E0	1.545143127E-1	4.289320850E0
2.727600495E0	7.348636985E-1	-9.861216545E0	9.732978344E-1	9.936343647E0
2.745939193E0	2.709457576E-1	-1.348935986E1	7.963801622E-1	1.351556371E1
2.764265131E0	-1.741293967E-1	-1.518896866E1	-2.438675165E-1	1.519192421E1
2.782616589E0	-4.300907850E-1	-1.413774490E1	-2.409924984E0	1.434812000E1
2.800955287E0	-2.390018106E-1	-1.157624817E1	-3.747501373E0	1.217006204E1
2.819281173E0	-2.779440284E-1	-1.002132988E1	-3.773607016E0	1.071188197E1
2.837632631E0	-4.026736915E-1	-9.234309196E0	-2.786702156E0	9.654031352E0
2.855971329E0	8.590489626E-2	-8.184139252E0	-1.527776957E0	8.325960447E0
2.874297266E0	9.207471609E-1	-6.644599915E0	-4.408059120E-1	6.722558532E0
2.892648725E0	1.445321321E0	-5.918590069E0	1.421248794E0	6.256085858E0
2.910987423E0	1.153576136E0	-6.770582676E0	1.761985540E0	7.090565613E0
2.929326068E0	6.990161538E-1	-7.533180714E0	8.276847601E-1	7.610683104E0
2.947664766E0	9.260810912E-2	-8.466720581E0	-1.111135721E0	8.539821793E0
2.966003464E0	-5.309663713E-2	-9.044424057E0	-3.056797743E0	9.547169121E0
2.984342162E0	7.297664881E-3	-9.062550545E0	-1.904996872E0	9.260609522E0
3.002680860E0	6.868913174E-1	-8.302605629E0	1.239687562E0	8.422701773E0
3.021019558E0	8.894613981E-1	-6.811772346E0	5.715625286E-1	6.893335028E0
3.039345443E0	4.884950817E-1	-4.251746178E0	-3.114080667E0	5.292775397E0
3.057696902E0	-4.480295777E-1	-1.686153412E-1	-3.288300037E0	3.322962349E0
3.076035600E0	-2.129141808E0	5.553439140E0	-2.242986917E0	6.356486564E0
3.094361537E0	-1.348483086E0	1.162240696E1	-8.529093266E-1	1.173141954E1
3.112712995E0	1.317494273E0	1.844582748E1	7.000499964E-1	1.850606422E1
3.131051693E0	2.438744783E0	1.986530304E1	2.332777023E0	2.014992778E1
3.149377579E0	1.482857108E0	1.821726608E1	3.118408442E0	1.854163207E1
3.167729037E0	-5.388586521E-1	1.659058380E1	3.089057922E0	1.688431575E1
3.186067735E0	-4.348397732E0	1.547299576E1	-2.750472426E-1	1.607475697E1
3.204393673E0	-6.699045658E0	1.621973419E1	-3.254703760E0	1.784797150E1
3.222745131E0	-6.300852776E0	1.634628677E1	-2.422210217E0	1.768527465E1
3.241083829E0	-4.845089912E0	1.393717098E1	-1.291034937E0	1.481169816E1
3.259409714E0	-3.220122337E0	9.309116364E0	-5.300278664E-1	9.864571196E0
3.277761173E0	-2.270406723E0	4.388387680E0	-1.528257012E0	5.171872254E0
3.296099870E0	-1.448581934E0	-6.671752930E-1	-3.076465368E0	3.465278005E0
3.314425808E0	-4.716520309E-1	-5.101840019E0	-3.694684029E0	6.316796442E0
3.332777266E0	8.668648005E-1	-8.057716370E0	-2.477712393E0	8.474509212E0
3.351115964E0	2.277957678E0	-9.738446236E0	4.320704937E-2	1.000141456E1
3.369441850E0	3.406579494E0	-9.847046852E0	9.753714800E-1	1.046520258E1
3.387793308E0	2.568612576E0	-9.977810860E0	-1.035845876E0	1.035506914E1
3.406132006E0	1.101094842E0	-1.070433903E1	-1.522170782E0	1.086794773E1
3.424470704E0	1.906963587E-1	-9.391410828E0	-2.430878639E0	9.702789980E0
3.442809402E0	4.787034094E-1	-7.174250603E0	-1.971758246E0	7.455659545E0
3.461148100E0	1.349364281E0	-4.885539055E0	-3.134921789E-1	5.078144658E0
3.479473985E0	1.874057651E0	-4.329645634E0	1.478976965E0	4.944218467E0
3.497825495E0	1.462879896E0	-5.817220688E0	2.052295685E0	6.339715427E0
3.516164141E0	-1.239639521E-2	-8.545754433E0	3.135613203E-1	8.551514088E0
3.534490079E0	-7.968280315E-1	-1.072474480E1	-1.058115840E0	1.080623408E1
3.552841537E0	-1.046471715E0	-1.175954247E1	-1.914015770E0	1.196015880E1
3.571180235E0	-3.285570145E-1	-1.130385971E1	-2.586846113E0	1.160073131E1
3.589518933E0	4.639019370E-1	-1.031374168E1	-2.382765770E0	1.059556725E1
3.607857631E0	1.129531145E0	-9.769714355E0	-7.627667189E-1	9.864328272E0
3.626196329E0	1.106491327E0	-9.191987038E0	-6.749827862E-1	9.282917134E0
3.644522214E0	1.439363241E0	-8.012125969E0	-1.096852422E0	8.213952418E0
3.662873673E0	1.791000843E0	-5.454235554E0	-6.054946184E-1	5.772607143E0
3.681212370E0	1.251657724E0	-1.736220837E0	8.554315567E-1	2.304967028E0
3.699538308E0	-5.739123225E-1	3.139181137E0	5.240689516E-1	3.233957611E0
3.717889766E0	-1.817182779E0	8.533060074E0	-2.114851475E0	8.977074370E0
3.736228464E0	-1.428033352E0	1.272907066E1	-2.364755630E0	1.302538247E1
3.754554402E0	9.709479213E-1	1.544845390E1	2.128170490E0	1.562455047E1
3.772905860E0	2.531379223E0	1.644130325E1	3.422129154E0	1.698338310E1
3.791244558E0	2.506622791E0	1.569513798E1	2.460059404E0	1.608329588E1
3.809570443E0	-6.347714663E-1	1.368985271E1	-1.666426897E0	1.380550545E1
3.827921954E0	-4.687488556E0	1.240043259E1	-3.618243694E0	1.374172350E1
3.846260600E0	-4.758697033E0	1.307540703E1	-3.825379848E0	1.443069636E1
3.864586537E0	-2.491604567E0	1.419732475E1	-3.801401377E0	1.490713842E1
3.882937995E0	-1.460324049E0	1.374461460E1	-4.846928596E0	1.464717357E1
3.901276693E0	-1.976557016E0	1.112374401E1	-4.272782326E0	1.207895390E1
3.919602631E0	-2.698704243E0	7.531559944E0	-3.998588800E0	8.944054571E0
3.937954089E0	-2.043249607E0	3.734020233E0	-1.969639301E0	4.690123137E0
3.956292787E0	-6.540361643E-1	-7.418222427E-1	-2.662073672E-1	1.024172791E0
3.974618725E0	4.780563712E-1	-4.324882507E0	-6.762505770E-1	4.403460167E0
3.992970183E0	9.767000079E-1	-6.247072697E0	-1.168617249E0	6.430048713E0
4.011308881E0	2.082312822E0	-6.882026672E0	1.506222010E0	7.346225055E0
4.029634766E0	3.062510490E0	-7.773537636E0	3.553635597E0	9.079382349E0
4.047986277E0	2.776402712E0	-8.506441116E0	1.960810184E0	9.160389133E0
4.066324975E0	1.571272612E0	-9.429930687E0	-1.530043721E0	9.681607520E0
4.084650860E0	-5.278202891E-2	-1.010093975E1	-3.515851736E0	1.069546554E1
4.103002370E0	-5.702720881E-1	-1.021508408E1	-2.809314251E0	1.060968423E1
4.121341068E0	-2.099143416E-1	-9.336980820E0	-1.007622838E0	9.393539197E0
4.139666954E0	1.016526580E0	-7.773061752E0	6.315917522E-2	7.839502814E0
4.158018464E0	1.635874629E0	-6.870127201E0	1.365834922E-1	7.063525225E0
4.176357162E0	1.263479948E0	-8.186628342E0	4.919032753E-1	8.298146420E0
4.194683048E0	9.779524058E-2	-9.781284332E0	6.120357513E-1	9.800901737E0
4.213034558E0	-5.644195676E-1	-1.032952976E1	3.615909815E-1	1.035125609E1
4.231373256E0	-2.658421397E-1	-9.720382690E0	-1.486067533E0	9.836915594E0
4.249699141E0	6.423059702E-1	-7.892390728E0	-1.109555244E0	7.995842745E0
4.268050652E0	9.941805601E-1	-7.164856434E0	9.962475896E-1	7.301785533E0
4.286389350E0	8.716135025E-1	-6.767144203E0	2.456073523E0	7.251637602E0
4.304715235E0	8.030233383E-1	-5.170076370E0	1.085275054E0	5.343440661E0
4.323066745E0	3.465324640E-1	-3.790760040E-2	-4.062059879E0	4.076990581E0
4.341405443E0	-1.269998670E0	4.640188217E0	-3.768404245E0	6.111064872E0
4.359731329E0	-1.826807261E0	9.209649086E0	-1.737977982E0	9.548582540E0
4.378082839E0	-1.481233239E-1	1.303717327E1	-1.558426172E-1	1.303894606E1
4.396421537E0	2.301369429E0	1.715231705E1	-1.005891800E0	1.733522713E1
4.414747475E0	9.996696115E-1	1.649300003E1	-2.334576845E-1	1.652491730E1
4.433098933E0	-2.508752346E0	1.451437855E1	4.487213194E-1	1.473643016E1
4.451437631E0	-4.678141594E0	1.492680550E1	-4.673444927E-1	1.564969463E1
4.469776329E0	-4.270145416E0	1.624143600E1	-5.103824735E-1	1.680115697E1
4.488115027E0	-3.626648903E0	1.546959400E1	7.595697641E-1	1.590716402E1
4.506453725E0	-3.028066635E0	1.369934464E1	5.035984516E-1	1.403904706E1
4.524779662E0	-2.780787468E0	1.135867786E1	-5.599178672E-1	1.170751254E1
4.543131120E0	-2.807851315E0	8.477983475E0	-1.303520322E0	9.025486027E0
4.561469870E0	-2.417944431E0	4.158651352E0	-8.459152579E-1	4.884302301E0
4.579795756E0	-1.694808364E0	-5.660419464E-1	-1.210750222E0	2.158401023E0
4.598147266E0	-3.172092438E-1	-5.127350807E0	-1.426123738E0	5.331432914E0
4.616485964E0	5.616162419E-1	-8.283719063E0	-1.926326752E0	8.523271031E0
4.634811902E0	1.026885748E0	-1.029859829E1	-1.713561773E0	1.049056314E1
4.653163360E0	1.257008314E0	-1.156252098E1	-9.704059362E-1	1.167106032E1
4.671502058E0	1.002787471E0	-1.204012394E1	-8.729147315E-1	1.211330456E1
4.689840756E0	2.774226665E-1	-1.139424038E1	-1.981134176E0	1.156851632E1
4.708179506E0	-1.596061438E-1	-1.043044949E1	-1.992576838E0	1.062026897E1
4.726518204E0	-7.252693921E-2	-8.566658974E0	-1.803854465E0	8.754815650E0
4.744844089E0	2.771506608E-1	-7.220951080E0	-1.199480414E0	7.325141654E0
4.763195600E0	6.543887854E-1	-6.554338455E0	-5.252661705E-1	6.607834881E0
4.781534298E0	9.927880764E-1	-6.702572823E0	5.891828537E-1	6.801268047E0
4.799872995E0	8.716104627E-1	-7.113448620E0	1.277477026E0	7.279615623E0
4.818211693E0	5.479169488E-1	-7.839900494E0	-3.151291013E-1	7.865339095E0
4.836550391E0	-5.688317120E-2	-9.063991547E0	-1.855631232E0	9.252164380E0
4.854876329E0	-5.073986650E-1	-1.021467686E1	-1.374050379E0	1.031916136E1
4.873227839E0	-5.424431562E-1	-1.078224850E1	-1.367479324E0	1.088214717E1
4.891566537E0	-5.257799029E-1	-1.091095638E1	-2.019488811E0	1.110872399E1
4.909905235E0	-5.340813845E-2	-9.648932457E0	-2.765806198E0	1.003765082E1
4.928243933E0	4.543613195E-1	-7.107137680E0	-2.849956512E0	7.670730235E0
4.946582631E0	5.196120143E-1	-3.099945545E0	6.127738953E-2	3.143789743E0
4.964908568E0	-8.315615654E-1	3.242765427E0	7.593282461E-1	3.432725103E0
4.983260079E0	-1.376485109E0	1.101747799E1	-2.749390125E0	1.143847361E1
5.001598777E0	4.680758715E-1	1.661700821E1	1.122218370E-1	1.662397818E1
5.019924714E0	2.491127729E0	1.988913727E1	6.343513489E0	2.102435878E1
5.038276173E0	2.560745716E0	2.096376038E1	6.385479927E0	2.206379436E1
5.056614870E0	1.382219791E0	2.096515083E1	3.152635098E0	2.124587464E1
5.074940808E0	-2.093836784E0	1.887751579E1	-2.366999388E-1	1.899475669E1
5.093292318E0	-4.857221603E0	1.650348663E1	-1.818226337E0	1.729923755E1
5.111631016E0	-4.716156006E0	1.568499374E1	-1.544264555E0	1.645131938E1
5.129956954E0	-3.073151588E0	1.448853588E1	-2.137175202E-1	1.481241398E1
5.148308412E0	-1.896338940E0	1.168801594E1	-2.633290887E-1	1.184378150E1
5.166647110E0	-8.823413849E-1	7.750642776E0	-1.813459754E0	8.008721874E0
5.184973048E0	3.016829491E-2	1.876504898E0	-1.622376204E0	2.480783204E0
5.203324558E0	7.707359791E-1	-3.699223042E0	-1.063589096E0	3.925494469E0
5.221663256E0	1.351280928E0	-8.294867516E0	-2.045746148E-1	8.406701970E0
5.239989193E0	1.104190111E0	-1.117373371E1	1.864048243E-1	1.122970648E1
5.258340652E0	8.211159110E-1	-1.200185108E1	-1.342871070E0	1.210462570E1
5.276679402E0	5.082122087E-1	-1.219703293E1	-2.614292860E0	1.248440704E1
5.295005287E0	-3.861052096E-1	-1.247714520E1	-2.094239712E0	1.265756965E1
5.313356798E0	-1.174893260E0	-1.214330101E1	-1.811119318E0	1.233370531E1
5.331695495E0	-1.270109773E0	-1.096926594E1	-1.331505179E0	1.112253928E1
5.350021433E0	-2.555783689E-1	-8.924807549E0	-1.060286403E0	8.991202219E0
5.368372943E0	8.139211535E-1	-6.873386383E0	2.153788805E-1	6.924759640E0
5.386711641E0	1.428781748E0	-5.917420387E0	1.961554170E0	6.395699812E0
5.405037527E0	1.346851826E0	-6.664488792E0	2.918640375E0	7.399181194E0
5.423389037E0	2.844637930E-1	-8.425781250E0	1.881970406E0	8.638085548E0
5.441727735E0	-5.684395432E-1	-9.895467758E0	-9.064599872E-1	9.953143995E0
5.460053673E0	-7.992595434E-1	-1.042147064E1	-2.566545486E0	1.076257506E1
5.478405183E0	1.088893414E-2	-9.420186996E0	-1.590603113E0	9.553536512E0
5.496743881E0	9.559596777E-1	-8.232067108E0	5.266972780E-1	8.304107285E0
5.515069818E0	1.233871460E0	-7.477825165E0	7.671025991E-1	7.617660689E0
5.533421277E0	1.002757311E0	-5.664559841E0	-2.288719893E0	6.191203370E0
5.551760027E0	5.097316504E-1	-2.600240707E0	-3.825097084E0	4.653218864E0
5.570085964E0	-3.177543879E-1	1.428503990E0	-1.267361283E0	1.935922551E0
5.588437423E0	-2.135503292E0	6.490828514E0	-8.086051345E-1	6.880775492E0
5.606776120E0	-3.817456007E0	1.119757175E1	-3.936988115E0	1.246829816E1
5.625102058E0	-2.465806484E0	1.594418907E1	-3.327667236E0	1.647333409E1
5.643453568E0	9.911699295E-1	1.832234192E1	2.138051987E0	1.847327522E1
5.661792266E0	3.939701796E0	1.874061394E1	8.865483284E0	2.110281154E1
5.680118204E0	1.489902258E0	1.712138367E1	7.371047974E0	1.870010523E1
5.698469714E0	-4.234112740E0	1.658710480E1	-4.221613407E-1	1.712419272E1
5.716808412E0	-5.777844906E0	1.773543930E1	-3.342113972E0	1.894990830E1
5.735134350E0	-2.788153410E0	1.902821541E1	-8.943449259E-1	1.925218517E1
5.753485860E0	-4.616798759E-1	1.734772491E1	1.770712256E0	1.744397116E1
5.771824558E0	-6.862813830E-1	1.244285488E1	3.006938934E0	1.281941112E1
5.790150495E0	-2.376035690E0	5.958370209E0	6.300629377E-1	6.445517858E0
5.808501954E0	-2.293942451E0	-5.880279541E-1	-4.514697790E-1	2.410762080E0
5.826840704E0	-1.351251125E0	-6.677554131E0	-3.639650941E-1	6.822615287E0
5.845166641E0	-5.504036546E-1	-1.074300957E1	-1.038735747E0	1.080713518E1
5.863518100E0	-2.550905049E-1	-1.256358719E1	-1.155544519E0	1.261919480E1
5.881856850E0	-1.181715727E-1	-1.302701569E1	-1.245930910E0	1.308699530E1
5.900182735E0	-2.597417235E-1	-1.240639114E1	-2.910225868E0	1.274580015E1
5.918534245E0	-8.125022650E-1	-1.129483032E1	-3.504298210E0	1.185383726E1
5.936872943E0	-1.002004862E0	-1.044993305E1	-1.744496226E0	1.064182229E1
5.955198881E0	-1.168013811E0	-9.689136505E0	-2.618037164E-1	9.762794869E0
5.973550391E0	-1.071418762E0	-9.209133148E0	6.464898586E-1	9.293762459E0
5.991889089E0	-6.270727515E-1	-7.913778305E0	-1.384893060E-1	7.939791344E0
6.010227839E0	-1.918509603E-1	-7.710349083E0	-1.372172236E0	7.833846208E0
6.028566537E0	-1.980987191E-1	-8.432253838E0	-1.064790249E0	8.501524931E0
6.046905235E0	-2.521195412E-1	-8.880891800E0	-3.541653156E-1	8.891526106E0
6.065243985E0	-2.433287799E-1	-9.480403900E0	-1.094818115E-3	9.483526148E0
6.083582683E0	-5.145892501E-2	-9.975293159E0	-1.979003787E0	1.016983666E1
6.101921381E0	2.672164142E-1	-9.584320068E0	-4.415843010E0	1.055605349E1
6.120260079E0	2.445412576E-1	-9.946092606E0	-3.816945553E0	1.065615465E1
6.138598829E0	7.455648184E-1	-8.641078949E0	-1.280995131E0	8.767272143E0
6.156937527E0	1.857460976E0	-5.816234112E0	5.049460530E-1	6.126476233E0
6.175263464E0	3.221355438E0	-1.267938614E-1	-1.827424884E0	3.705764327E0
6.193614975E0	1.054635286E0	3.954529762E0	-2.720060825E0	4.914192927E0
6.211953673E0	-2.162135124E0	8.098017693E0	-2.398348570E0	8.718072878E0
6.230279610E0	-1.643025994E0	1.414016056E1	-2.017712355E0	1.437758110E1
6.248631120E0	2.513104677E0	2.069273376E1	1.368181705E-1	2.084523075E1
6.266969818E0	4.614160538E0	2.200668716E1	4.519098282E0	2.293484264E1
6.285295756E0	2.264223814E0	1.937586975E1	5.425711632E0	2.024819461E1
6.303647266E0	-1.502853632E0	1.690769958E1	1.636195302E0	1.705303519E1
6.321985964E0	-4.838029385E0	1.472784519E1	-3.920365810E0	1.599016011E1
6.340311902E0	-4.993509769E0	1.258434391E1	-4.954784870E0	1.441702967E1
6.358663412E0	-3.008977413E0	1.055946064E1	-3.230237246E0	1.144511191E1
6.377002110E0	-1.579725146E0	7.982401848E0	-2.250132322E0	8.442592390E0
6.395328048E0	-3.522872627E-1	5.083528519E0	-2.359405994E0	5.615439890E0
6.413679558E0	1.311167240E0	3.096548080E0	-1.832911134E0	3.829795395E0
6.432018256E0	2.995405674E0	3.944835663E-1	1.122855425E0	3.223178050E0
6.450344193E0	3.553639174E0	-2.691582680E0	4.849292755E0	6.587003030E0
6.468695704E0	2.545645475E0	-5.616144180E0	4.967258453E0	7.918020137E0
6.487034402E0	5.901424289E-1	-8.598508835E0	1.381082058E0	8.728688900E0
6.505360339E0	-6.932222247E-1	-9.761437416E0	-1.312992573E0	9.873710902E0
6.523711850E0	-6.687513590E-1	-9.228896141E0	-2.697721124E-1	9.257025945E0
6.542050600E0	2.268970609E-1	-8.053320885E0	7.423907518E-1	8.090649144E0
6.560389298E0	4.955043793E-1	-7.574940681E0	2.709535956E-1	7.595963847E0
6.578727995E0	4.567101598E-2	-7.991701126E0	-1.004030943E0	8.054653988E0
6.597066745E0	-5.636218190E-1	-8.866954803E0	-2.996059418E0	9.376402779E0
6.615405443E0	-4.192382991E-1	-9.262641907E0	-3.731812000E0	9.994934550E0
6.633744141E0	3.855471611E-1	-8.982357979E0	-1.846526861E0	9.178293029E0
6.652082891E0	7.530841827E-1	-9.285525322E0	4.245488644E-1	9.325682711E0
6.670421589E0	1.503297687E-1	-1.017294788E1	5.133001208E-1	1.018699881E1
6.688760339E0	-1.004281521E0	-1.156847191E1	-1.655586004E0	1.172941127E1
6.707099037E0	-1.605985880E0	-1.160879993E1	-3.846566439E0	1.233448418E1
6.725424975E0	-5.572208762E-2	-9.173171043E0	-3.962410212E0	9.992540549E0
6.743776485E0	9.448845387E-1	-7.366054535E0	-1.035595775E0	7.498268121E0
6.762115183E0	1.133618355E0	-7.331222057E0	2.894153118E0	7.962915904E0
6.780441120E0	6.340451241E-1	-6.906830788E0	1.504789829E0	7.097233065E0
6.798792631E0	4.175927490E-2	-2.942481041E0	-3.600311279E0	4.649965572E0
6.817131329E0	-2.015616655E0	7.172899246E-1	-3.642670393E0	4.224483747E0
6.835457266E0	-3.589097500E0	5.021038055E0	-1.301251411E0	6.307590606E0
6.853808777E0	-3.044289112E0	1.051128674E1	2.397856116E-1	1.094588243E1
6.872147475E0	-9.737110734E-1	1.847856903E1	-4.379148185E-1	1.850938670E1
6.890473464E0	1.116144061E0	2.005756378E1	1.854603291E0	2.017402280E1
6.908824923E0	2.193243742E0	1.899896812E1	3.984149933E0	1.953572519E1
6.927163673E0	6.296666861E-1	1.987053108E1	2.308351994E0	2.001406942E1
6.945489610E0	-1.950033188E0	2.044174194E1	-2.994103432E-1	2.053672539E1
6.963841068E0	-3.475703478E0	1.936498642E1	-1.349364996E0	1.972064907E1
6.982179818E0	-2.648939610E0	1.670048714E1	-8.147021532E-1	1.692887744E1
7.000505756E0	-1.809620142E0	1.256935692E1	-1.600423455E-1	1.269996346E1
7.018857266E0	-2.426476002E0	7.539272308E0	-1.994498372E0	8.167400840E0
7.037195964E0	-2.550542593E0	3.670511246E0	-4.667413235E0	6.462404090E0
7.055521902E0	-1.841704249E0	1.386946678E0	-6.283608437E0	6.693222738E0
7.073873412E0	-4.343693852E-1	-2.390043736E0	-2.318567991E0	3.358086263E0
7.092212110E0	7.849608064E-1	-5.840081215E0	1.676717520E0	6.126507464E0
7.110538048E0	1.076529264E0	-8.528174400E0	3.345839024E0	9.224061613E0
7.128889558E0	1.135479212E0	-9.862250328E0	2.867638111E0	1.033327842E1
7.147228308E0	7.272489667E-1	-9.795492172E0	1.054593801E0	9.878903079E0
7.165567006E0	3.253175914E-1	-9.801569939E0	1.050822258E0	9.863104593E0
7.183905704E0	-2.436193824E-2	-9.285255432E0	5.599294901E-1	9.302154749E0
7.202244454E0	-2.797625065E-1	-8.939939499E0	-7.286930084E-1	8.973950011E0
7.220570391E0	-2.911681235E-1	-8.332678795E0	-2.655858040E0	8.750536938E0
7.238921902E0	-1.202231348E-1	-8.013977051E0	-3.848269701E0	8.890863932E0
7.257260600E0	-1.778539717E-1	-8.683429718E0	-2.989134789E0	9.185233284E0
7.275586537E0	-1.314079762E-2	-9.766227722E0	-1.361513138E0	9.860684288E0
7.293938048E0	-9.357884526E-3	-1.035471058E1	-8.964441419E-1	1.039344653E1
7.312276745E0	-2.235470712E-2	-1.056855869E1	-2.766149044E0	1.092458297E1
7.330615495E0	-2.490284741E-1	-1.044021988E1	-4.189949512E0	1.125237234E1
7.348954193E0	-2.090907991E-1	-9.865390778E0	-2.692450762E0	1.022834030E1
7.367292943E0	1.621077657E-1	-8.718374252E0	-9.559119940E-1	8.772120398E0
7.385618881E0	8.199680448E-1	-7.133271217E0	2.375397682E-1	7.184172255E0
7.403970391E0	1.034501553E0	-5.996565819E0	-5.125749111E-1	6.106695352E0
7.422309089E0	-1.921920665E-2	-5.006002903E0	-4.548656940E-1	5.026662635E0
7.440635027E0	-2.909453511E-1	-3.545845509E0	1.828449249E0	4.000112027E0
7.458986537E0	-7.108532786E-1	1.308407784E0	1.982595682E0	2.479501754E0
7.477325235E0	-1.532827020E0	9.297739029E0	-3.529283524E0	1.006247246E1
7.495651173E0	-9.506222606E-1	1.555014324E1	-4.389556885E0	1.618576063E1
7.514002683E0	2.714670897E0	2.101307678E1	3.294848680E0	2.144236138E1
7.532341433E0	5.543893337E0	2.298934937E1	4.761930466E0	2.412303711E1
7.550667370E0	4.527549744E0	2.106458092E1	3.974887133E-1	2.154932187E1
7.569018881E0	-8.228630424E-1	1.673784637E1	-1.830886841E0	1.685778015E1
7.587357579E0	-6.292486668E0	1.372283745E1	-3.235592842E0	1.543958280E1
7.605683516E0	-6.785053730E0	1.359124088E1	-3.733371258E0	1.564278888E1
7.624035027E0	-3.937566996E0	1.331437397E1	-1.312305331E0	1.394629461E1
7.642373725E0	-1.370830059E0	1.232415867E1	-7.255028486E-1	1.242136934E1
7.660699662E0	-4.476163387E-1	8.740786552E0	-2.401813865E-1	8.755535223E0
7.679051173E0	-1.240018606E-1	3.938768387E0	1.177545428E0	4.112892668E0
7.697389923E0	8.952369094E-1	-1.515052795E0	2.856302023E0	3.354891257E0
7.715715860E0	2.058993578E0	-6.728158474E0	3.779198885E0	7.986858908E0
7.734067370E0	2.102378130E0	-1.025795364E1	1.754243255E0	1.061710771E1
7.752406068E0	1.041085720E0	-1.258281326E1	-2.665499687E0	1.290410546E1
7.770732006E0	-1.421418786E-1	-1.343366623E1	-5.524018288E0	1.452578296E1
7.789083516E0	-4.631306529E-1	-1.279820538E1	-5.259428978E0	1.384449869E1
7.807422214E0	-3.264469504E-1	-1.137115002E1	-4.228885174E0	1.213643647E1
7.825748204E0	-1.628208160E-2	-9.967313766E0	-3.068571806E0	1.042898565E1
7.844099662E0	4.854506552E-1	-8.164990425E0	-2.272189856E0	8.489144699E0
7.862438412E0	6.513314843E-1	-7.564872742E0	-1.423309684E0	7.725111181E0
7.880764350E0	1.440058649E-1	-7.804446220E0	-1.274377942E0	7.909118638E0
7.899115860E0	-3.033399582E-2	-9.010072708E0	9.679365158E-2	9.010643671E0
7.917454558E0	9.877309203E-2	-9.686858177E0	8.097944260E-1	9.721149340E0
7.935793308E0	-7.449747622E-2	-9.341270447E0	-6.906896830E-1	9.367066546E0
7.954132006E0	-5.054260492E-1	-9.316915512E0	-2.545847893E0	9.671696420E0
7.972470704E0	-2.727722526E-1	-9.165718079E0	-3.078594923E0	9.672773092E0
7.990809454E0	9.301112592E-2	-8.952630043E0	-2.106103420E0	9.197494625E0
8.009148152E0	8.357251883E-1	-8.244548798E0	5.496416092E-1	8.305006163E0
8.027486902E0	1.529929399E0	-6.127514839E0	2.809309006E0	6.912260062E0
8.045812839E0	1.621889949E0	-3.210472107E0	2.274164200E0	4.255523583E0
8.064164350E0	-9.207271039E-3	-6.454353333E-1	2.365562916E-1	6.874812160E-1
8.082503048E0	-2.862418175E0	2.487663269E0	-2.000132322E0	4.287474274E0
8.100828985E0	-3.580085754E0	8.831182480E0	-2.014350653E0	9.739836064E0
8.119180495E0	-1.244922876E0	1.581934357E1	1.461218596E0	1.593538903E1
8.137519193E0	6.934194565E-1	2.003586960E1	3.586355448E0	2.036612007E1
8.155845131E0	6.165903211E-1	1.998689651E1	3.775105715E0	2.034963486E1
8.174196641E0	-3.840277195E-1	1.855047607E1	3.114309311E0	1.881399911E1
8.192535391E0	-2.324346066E0	1.775685883E1	1.860474348E0	1.800472118E1
8.210861329E0	-5.272129059E0	1.759731293E1	1.165930033E-1	1.837047525E1
8.229212839E0	-5.795699120E0	1.650914955E1	-6.001553535E-1	1.750720805E1
8.247551537E0	-4.051367283E0	1.442991066E1	-2.283018827E-1	1.498959707E1
8.265877475E0	-1.983512878E0	1.121280575E1	8.688141108E-1	1.141999011E1
8.284228985E0	-6.074032187E-1	6.786891937E0	6.744112968E-1	6.847311256E0
8.302567683E0	-5.467753410E-1	2.261634827E0	-2.805942059E0	3.645170256E0
8.320893620E0	-7.968332171E-1	-2.421255112E0	-4.446054935E0	5.124921851E0
8.339245131E0	-1.412478983E-1	-5.897591591E0	-2.331193209E0	6.343185266E0
8.357583829E0	7.690888643E-1	-8.706410408E0	6.622698307E-1	8.765368287E0
8.375909818E0	1.211794257E0	-1.088795567E1	2.022898436E0	1.114038339E1
8.394261277E0	1.011232376E0	-1.150855637E1	5.584163666E-1	1.156638619E1
8.412600027E0	4.623515308E-1	-1.019939041E1	-1.714908838E0	1.035288588E1
8.430938725E0	-2.153072655E-1	-9.451625824E0	-1.418757677E0	9.559940443E0
8.449277423E0	-5.357929468E-1	-8.278377533E0	-7.433710098E-1	8.328938055E0
8.467616173E0	-5.778333545E-1	-7.065280914E0	-1.019667387E-1	7.089603868E0
8.485954870E0	-1.556265354E-1	-6.588923454E0	1.309443712E-1	6.592061766E0
8.504293620E0	2.319565415E-1	-6.675941467E0	1.025465727E-1	6.680757001E0
8.522632318E0	-1.411844790E-1	-8.523413658E0	-9.114599228E-2	8.525070148E0
8.540958256E0	-8.559670448E-1	-1.068703079E1	-8.128581047E-1	1.075202516E1
8.559309766E0	-1.223228693E0	-1.203506565E1	-2.396109104E0	1.233208954E1
8.577648464E0	-1.296585321E0	-1.209835148E1	-3.533246994E0	1.267024374E1
8.595974402E0	-6.984028816E-1	-1.076808643E1	-3.985766172E0	1.150329448E1
8.614325912E0	8.508999646E-2	-8.676255226E0	-3.526249170E0	9.365846372E0
8.632664662E0	5.942637920E-1	-7.777913094E0	-4.637305737E-1	7.814353946E0
8.650990600E0	1.433349848E0	-6.128325462E0	1.855880499E0	6.561642872E0
8.669342058E0	2.163776875E0	-1.708019257E0	1.465268493E0	3.121901968E0
8.687680808E0	1.809928179E0	2.709262848E0	-1.082110405E-2	3.258229932E0
8.706006745E0	-1.333138227E0	5.544447899E0	-1.137096405E0	5.814735443E0
8.724358204E0	-3.876203537E0	8.654684067E0	-1.008696914E0	9.536560157E0
8.742696954E0	-2.511533737E0	1.185298347E1	1.738209844E0	1.224019577E1
8.761022891E0	-9.879819155E-1	1.445453358E1	3.081919193E0	1.481242300E1
8.779374350E0	-6.053273082E-1	1.487777805E1	1.847056270E0	1.500421000E1
8.797713100E0	-5.938918591E-1	1.454386425E1	6.947391033E-1	1.457255493E1
8.816051798E0	-1.042773604E0	1.420100689E1	6.295009851E-1	1.425314860E1
8.834390548E0	-2.441993237E0	1.509252834E1	3.859041929E-1	1.529368055E1
8.852729245E0	-3.464605808E0	1.644160461E1	-6.690047979E-1	1.681598713E1
8.871067943E0	-3.603090525E0	1.544205475E1	-1.276862264E0	1.590816436E1
8.889406693E0	-3.293020725E0	1.258101177E1	-2.042083740E-1	1.300644239E1
8.907745391E0	-2.546069145E0	9.220907211E0	1.084683299E0	9.627260033E0
8.926071329E0	-1.293719649E0	5.570875168E0	2.743335724E0	6.343047498E0
8.944422839E0	-4.267448187E-1	1.136893272E0	1.788844585E0	2.162082886E0
8.962761537E0	3.113325834E-1	-3.375605583E0	-8.936469555E-1	3.505744701E0
8.981087475E0	8.814444542E-1	-7.430506706E0	-2.159514427E0	7.787995686E0
8.999438985E0	1.321088076E0	-9.703274727E0	-2.024137259E0	9.999797286E0
9.017777683E0	1.325264454E0	-1.077174854E1	-1.900982738E0	1.101819531E1
9.036103620E0	1.065635562E0	-1.158170414E1	-1.676978111E0	1.175090233E1
9.054455131E0	5.199800730E-1	-1.095569038E1	-2.047192097E0	1.115744265E1
9.072793829E0	-4.462972283E-3	-1.011546707E1	-2.833506584E0	1.050483001E1
9.091132527E0	-2.768670321E-1	-9.149721146E0	-2.730010509E0	9.552330071E0
9.109471277E0	-3.590389490E-1	-8.249179840E0	-1.541238427E0	8.399600758E0
9.127809975E0	-3.056522012E-1	-7.381477356E0	-8.088129759E-1	7.431945213E0
9.146148673E0	-5.944982171E-2	-7.094792366E0	-1.518046856E-1	7.096665249E0
9.164487423E0	-2.457016110E-1	-8.101675987E0	-1.345198393E0	8.216269336E0
9.182826120E0	-4.265014529E-1	-9.456556320E0	-2.602188587E0	9.817318696E0
9.201152058E0	-1.066335142E-1	-1.061176586E1	-1.915737033E0	1.078383020E1
9.219503568E0	3.071102500E-1	-1.037212944E1	-1.553206563E0	1.049227509E1
9.237842266E0	5.741646290E-1	-8.771541595E0	-2.397342682E0	9.111358785E0
9.256168204E0	9.812903404E-1	-6.495533943E0	-2.913426399E0	7.186302618E0
9.274519662E0	1.150171280E0	-5.147984505E0	-3.230730295E-1	5.284790877E0
9.292858412E0	1.251562238E0	-3.873038292E0	2.535609484E0	4.795430022E0
9.311184350E0	9.805874825E-1	-4.772329330E-1	1.852518797E0	2.149681134E0
9.329535808E0	-1.728417873E0	4.397047043E0	-3.185049534E0	5.697893609E0
9.347874558E0	-3.876174212E0	7.401981354E0	-2.463246822E0	8.711006795E0
9.366200495E0	-2.532995701E0	9.992998123E0	1.130117416E0	1.037078802E1
9.384551954E0	-4.643687308E-1	1.161952114E1	2.733789921E0	1.194581589E1
9.402890652E0	1.295796037E0	1.326951599E1	1.400954366E0	1.340603652E1
9.421229402E0	2.183887064E-1	1.216170025E1	1.749100089E0	1.228877527E1
9.439568100E0	-3.350575686E0	1.159953785E1	1.201504350E0	1.213339394E1
9.457906798E0	-4.745512486E0	1.432077122E1	3.949428797E-1	1.509173141E1
9.476232735E0	-3.132206678E0	1.786843491E1	8.589148521E-3	1.814088637E1
9.494584245E0	-5.633146763E-1	1.936339760E1	8.598798513E-1	1.939066485E1
9.512922943E0	1.291663051E-1	1.764937973E1	1.570960879E0	1.771962773E1
9.531248881E0	-1.246000290E0	1.337366104E1	1.860327721E-1	1.343286770E1
9.549600391E0	-2.693651199E0	7.664093018E0	-8.221719861E-1	8.165172707E0
9.567939089E0	-3.068028927E0	2.516341209E0	-1.495144010E0	4.240310152E0
9.586265027E0	-2.528243780E0	-1.771495342E0	-1.207448006E0	3.314836805E0
9.604616485E0	-1.092690229E0	-4.517399788E0	-4.104076624E-1	4.665759020E0
9.622955235E0	4.451970756E-1	-6.530614853E0	8.713022470E-1	6.603506523E0
9.641281173E0	1.155719399E0	-8.701130867E0	1.528316379E0	8.909608109E0
9.659632631E0	1.010045052E0	-1.024287987E1	1.127778053E0	1.035416159E1
9.677971329E0	2.909222841E-1	-1.129718018E1	-8.226791024E-1	1.133083036E1
9.696310079E0	-2.270364761E-2	-1.108695889E1	-1.817916512E0	1.123503419E1
9.714648777E0	-1.855877936E-1	-1.041092014E1	-1.039062142E0	1.046428933E1
9.732987475E0	-3.212085068E-1	-9.309305191E0	-1.109294176E0	9.380664775E0
9.751313412E0	-8.789945841E-1	-8.295653343E0	-1.817117810E0	8.537705371E0
9.769664870E0	-9.509827495E-1	-7.489806175E0	-2.979715347E0	8.116666082E0
9.788003620E0	-4.939203560E-1	-7.659125328E0	-2.383332253E0	8.036568343E0
9.806342318E0	-1.820790172E-1	-8.731282234E0	-1.200237632E0	8.815271555E0
9.824681016E0	-1.579591632E-1	-9.927169800E0	-4.416512251E-1	9.938244671E0
9.843019714E0	-2.814349532E-1	-1.033355904E1	-1.375088811E0	1.042844750E1
9.861345652E0	-3.263403773E-1	-9.683235168E0	-4.016871452E0	1.048841254E1
9.879697162E0	-2.223625183E-1	-8.797598839E0	-4.324128151E0	9.805369686E0
9.898035860E0	5.316544175E-1	-7.829010487E0	-1.338115215E0	7.960314940E0
9.916361798E0	1.730204344E0	-5.812448502E0	1.630084991E0	6.279756503E0
9.934713256E0	2.574887276E0	-2.087090492E0	1.611408472E0	3.685461772E0
9.953052006E0	4.992092848E-1	2.861013412E0	-2.019623518E0	3.537440715E0
9.971377891E0	-2.330127239E0	5.694634438E0	-3.183334827E0	6.927624048E0
9.989729402E0	-2.238892794E0	9.031663895E0	-8.973886967E-1	9.348203042E0
1.000806810E1	7.902541161E-1	1.421872616E1	1.958042622E0	1.437465151E1
1.002639404E1	2.481606007E0	1.818024254E1	2.503172398E0	1.851878666E1
1.004474555E1	9.400377870E-1	1.712190056E1	3.408414602E0	1.748314731E1
1.006308424E1	-2.621563196E0	1.537055397E1	1.761971354E0	1.569175153E1
1.008141018E1	-5.014698505E0	1.589199734E1	-6.675314903E-2	1.666455029E1
1.009976164E1	-3.439486980E0	1.746323776E1	1.324132681E0	1.784791504E1
1.011810034E1	-1.326096416E0	1.651976395E1	2.690582275E0	1.678988879E1
1.013642628E1	-6.985118985E-1	1.293200970E1	2.059223652E0	1.311355008E1
1.015477779E1	-9.231467843E-1	8.692928314E0	1.940783262E-1	8.743961863E0
1.017311649E1	-2.785225511E-1	4.720597267E0	-5.021891594E-1	4.755397704E0
1.019144242E1	1.517921686E0	3.779335022E-1	4.682469368E-1	1.632842666E0
1.020979388E1	2.738820553E0	-4.672554970E0	1.734984040E0	5.687185383E0
1.022813258E1	2.518021584E0	-8.911000252E0	1.614553928E0	9.399635236E0
1.024645852E1	9.718033671E-1	-1.176885986E1	-6.261782646E-1	1.182550479E1
1.026480998E1	-9.765377641E-1	-1.403373528E1	-3.677310944E0	1.454035651E1
1.028314872E1	-2.604360580E0	-1.406034279E1	-5.653400421E0	1.537650382E1
1.030148742E1	-2.639915705E0	-1.252732086E1	-4.774283886E0	1.366370043E1
1.031982612E1	-1.596604705E0	-1.006916332E1	-3.063769341E0	1.064536891E1
1.033816482E1	-5.740302801E-1	-7.645301819E0	-1.400671482E0	7.793717423E0
1.035649076E1	-9.795677662E-2	-6.249815941E0	-2.824296355E-1	6.256961029E0
1.037484221E1	1.099064350E-1	-6.493893623E0	1.193555713E0	6.603583047E0
1.039318091E1	-1.508048475E-1	-7.618019104E0	9.493960142E-1	7.678431478E0
1.041150685E1	-6.409115195E-1	-8.405336380E0	-1.105959058E0	8.501975810E0
1.042985836E1	-8.449056149E-1	-9.021903038E0	-2.702524662E0	9.455804539E0
1.044819706E1	-5.689987540E-1	-8.621646881E0	-3.232316256E0	9.225205846E0
1.046653576E1	3.022873402E-2	-8.609429359E0	-2.671191454E0	9.014346979E0
1.048487445E1	2.608994246E-1	-9.447201729E0	-1.516735792E0	9.571738425E0
1.050321315E1	4.405145049E-1	-9.392829895E0	-1.060388327E0	9.462754877E0
1.052153909E1	1.015477896E0	-6.746605396E0	-1.681954622E0	7.026866377E0
1.053989055E1	1.109266996E0	-2.699775219E0	-4.875656366E-1	2.959219450E0
1.055822925E1	-1.518542469E-1	4.635429382E-1	5.246789455E-1	7.163935816E-1
1.057655518E1	-1.097374678E0	4.255444527E0	1.402361870E0	4.612987981E0
1.059490669E1	-4.727849960E-1	1.104333019E1	5.270465612E-1	1.106600404E1
1.061324539E1	9.824680686E-1	1.667572975E1	2.044296265E0	1.682927073E1
1.063157128E1	1.175893664E0	1.843938828E1	3.316447020E0	1.877212259E1
1.064992279E1	4.134648442E-1	1.745410538E1	2.448282719E0	1.762982802E1
1.066826148E1	-6.420210004E-1	1.531788826E1	9.077801108E-1	1.535818858E1
1.068658742E1	-3.324833155E0	1.332358170E1	-8.093515038E-1	1.375599486E1
1.070493888E1	-6.307003021E0	1.338594818E1	-2.693910360E0	1.504058007E1
1.072327758E1	-6.277517796E0	1.342552567E1	-3.719008923E0	1.528015041E1
1.074160352E1	-2.957234859E0	1.394586086E1	-2.992643118E0	1.456668068E1
1.075995498E1	3.198192716E-1	1.495375919E1	-6.226828098E-1	1.497013468E1
1.077829367E1	7.825219631E-1	1.084597492E1	1.019067049E0	1.092181351E1
1.079661961E1	-6.072281599E-1	5.102716446E0	6.201992035E-1	5.176010840E0
1.081497107E1	-1.348375797E0	3.981494904E-2	-4.450728297E-1	1.420490178E0
1.083330982E1	-8.543616533E-1	-3.677433968E0	-1.292482138E0	3.990484243E0
1.085163570E1	4.377677143E-1	-6.661426544E0	-3.735462427E-1	6.686238178E0
1.086998721E1	1.368340492E0	-8.759375572E0	8.591749668E-1	8.907143074E0
1.088832591E1	1.271131396E0	-1.060701370E1	1.328347325E0	1.076517633E1
1.090665180E1	1.145260334E-1	-1.185168648E1	-1.293838024E-2	1.185224687E1
1.092500331E1	-9.441671371E-1	-1.233323097E1	-1.606678247E0	1.247322945E1
1.094334201E1	-1.225349665E0	-1.163627625E1	-2.380015373E0	1.194022110E1
1.096168070E1	-9.497926235E-1	-1.028201294E1	-1.870564461E0	1.049385094E1
1.098001940E1	-8.550181985E-1	-8.999558449E0	-1.567306161E0	9.174941798E0
1.099835810E1	-9.221563339E-1	-8.006138802E0	-1.448875189E0	8.188276383E0
1.101668398E1	-4.152570963E-1	-6.743539810E0	-1.386770844E0	6.897166157E0
1.103503550E1	-1.046600342E-1	-6.833181381E0	-5.728881955E-1	6.857953222E0
1.105337419E1	-4.074243307E-1	-8.269245148E0	-4.353915453E-1	8.290716235E0
1.107170008E1	-9.613965154E-1	-9.434252739E0	-2.510414124E-1	9.486433987E0
1.109005159E1	-9.871231914E-1	-9.869780540E0	-8.900983930E-1	9.958878213E0
1.110839029E1	-1.008571744E0	-9.166057587E0	-2.691927671E0	9.606263750E0
1.112672899E1	-4.125661254E-1	-8.188979149E0	-2.162109613E0	8.479640811E0
1.114506768E1	4.769940376E-1	-6.887173653E0	-2.672699690E-1	6.908843425E0
1.116340638E1	1.261667728E0	-5.698381901E0	1.176994920E0	5.953879306E0
1.118173227E1	7.422729731E-1	-2.019574165E0	-5.434440374E-1	2.219229686E0
1.120008378E1	-1.879436731E0	4.608427048E0	-6.358497143E0	8.074674495E0
1.121842248E1	-1.662628531E0	1.065333748E1	-5.863386631E0	1.227343619E1
1.123674836E1	4.694397926E0	1.699306488E1	2.576174259E0	1.781679825E1
1.125509987E1	9.989115715E0	2.284436035E1	7.026746273E0	2.590409998E1
1.127343857E1	6.177316189E0	2.174569511E1	4.990000725E0	2.315026131E1
1.129176445E1	-8.481373787E-1	1.534930801E1	5.455718040E-1	1.538240040E1
1.131011591E1	-4.605947971E0	1.277712822E1	-6.052246690E-1	1.359544259E1
1.132845461E1	-4.919140339E0	1.292707539E1	4.743055105E-1	1.383951536E1
1.134678055E1	-4.355069637E0	1.392615986E1	-5.289714932E-1	1.460083459E1
1.136513201E1	-3.189399004E0	1.465242577E1	-9.542040229E-1	1.502585612E1
1.138347070E1	-1.562111735E0	1.235510349E1	3.709245920E-1	1.245898714E1
1.140179664E1	-1.103502989E0	6.901971817E0	1.667505145E0	7.185785080E0
1.142014810E1	-1.314019442E0	-7.524595261E-1	1.348282933E0	2.027488422E0
1.143848680E1	-1.864541292E0	-6.735953331E0	-2.049721718E0	7.283607666E0
1.145681274E1	-1.587039232E0	-9.432141304E0	-4.412817955E0	1.053361027E1
1.147516419E1	4.584951401E-1	-8.713825226E0	-3.478281975E0	9.393583627E0
1.149350289E1	1.441750288E0	-8.351734161E0	-1.894274950E0	8.684375912E0
1.151182883E1	8.968074322E-1	-9.229502678E0	-6.306120157E-1	9.294388348E0
1.153018029E1	7.928991318E-2	-1.039303684E1	5.450354815E-1	1.040762054E1
1.154851899E1	-7.110829353E-1	-9.652563095E0	-6.772984266E-1	9.702388696E0
1.156684487E1	-4.459071159E-2	-7.644922256E0	-1.475209475E0	7.786081661E0
1.158519638E1	1.111294031E0	-5.707602501E0	3.229882717E-1	5.823746402E0
1.160353508E1	8.294149637E-1	-5.778727531E0	2.017923117E0	6.176862858E0
1.162186096E1	-4.719048738E-1	-7.743774414E0	1.933625698E0	7.995476517E0
1.164021248E1	-1.665323853E0	-1.014519787E1	-7.994170189E-1	1.031200324E1
1.165855112E1	-3.057676792E0	-1.256811142E1	-5.124665260E0	1.391290789E1
1.167687706E1	-2.813743353E0	-1.311434078E1	-5.225565910E0	1.439477770E1
1.169522852E1	-2.269647360E0	-1.182836246E1	-2.787532091E0	1.236251564E1
1.171356721E1	-1.532888055E0	-1.120409584E1	5.116397142E-2	1.130858643E1
1.173189315E1	-1.316595078E0	-1.014359093E1	-2.001686692E-1	1.023063669E1
1.175024461E1	-1.128128648E0	-8.038112640E0	-1.308818221E0	8.221735474E0
1.176858331E1	-9.915558696E-1	-6.580682755E0	2.932229042E-1	6.661422388E0
1.178690924E1	-7.890995741E-1	-3.893115520E0	2.606888771E0	4.751304627E0
1.180526070E1	4.182405472E-1	2.610893250E-1	4.674229622E0	4.700161205E0
1.182359940E1	-1.283524871E0	5.156001091E0	3.443407774E0	6.331574879E0
1.184192529E1	-5.014200687E0	1.048234558E1	1.788255453E0	1.175668469E1
1.186027680E1	-4.243315697E0	1.705929184E1	3.844182968E0	1.799452441E1
1.187861550E1	2.037039548E-1	2.296319580E1	8.635311127E0	2.453402647E1
1.189694138E1	2.925811291E0	2.547691727E1	7.623448372E0	2.675351660E1
1.191529289E1	2.614289045E0	2.335346603E1	3.845664024E0	2.381193009E1
1.193363154E1	1.036582351E0	2.086367035E1	-1.167680979E0	2.092201525E1
1.195195748E1	-1.360994577E0	1.922256660E1	-3.726613045E0	1.962771046E1
1.197030893E1	-2.907275677E0	1.585280514E1	-3.415609121E0	1.647513485E1
1.198864763E1	-3.082332850E0	1.152921104E1	-4.771362782E0	1.285260230E1
1.200697357E1	-1.341294050E0	8.297868729E0	-4.504100323E0	9.536278880E0
1.202532503E1	-1.332601011E-1	4.235898018E0	-9.943801165E-1	4.353088799E0
1.204366372E1	1.275534481E-1	-5.563783646E-1	1.779293895E0	1.868612729E0
1.206198966E1	-1.493577808E-1	-4.412974358E0	2.429587841E0	5.039796375E0
1.208034112E1	-6.118386984E-1	-8.024553299E0	2.533593655E0	8.437232902E0
1.209867982E1	-9.520705938E-1	-1.056716251E1	2.667683840E0	1.094019648E1
1.211700570E1	-9.181988835E-1	-1.256363487E1	1.739508390E0	1.271667802E1
1.213535721E1	-1.521521926E0	-1.428613853E1	1.115094900E0	1.441014295E1
1.215369591E1	-2.477111340E0	-1.442303371E1	-4.879170358E-1	1.464233742E1
1.217202180E1	-2.827129602E0	-1.293374157E1	-2.760195017E0	1.352379419E1
1.219037326E1	-1.925409198E0	-9.999670029E0	-4.209931850E0	1.101926166E1
1.220871195E1	3.304740191E-1	-6.304528236E0	-2.662484646E0	6.851650447E0
1.222703789E1	1.776504278E0	-5.366646767E0	4.706882834E-1	5.672601910E0
1.224538935E1	1.251746535E0	-7.019096375E0	1.814594507E0	7.357128280E0
1.226372805E1	-6.018662453E-2	-8.816252708E0	-7.913362980E-1	8.851900778E0
1.228205399E1	-6.553174257E-1	-1.039325619E1	-4.078338623E0	1.118400917E1
1.230040544E1	-1.226999760E-1	-1.045284843E1	-4.526268005E0	1.139140894E1
1.231874414E1	5.839024186E-1	-9.637852669E0	-2.691493511E0	1.002363624E1
1.233707008E1	7.128584981E-1	-9.605420113E0	-8.881813288E-2	9.632245400E0
1.235542154E1	3.412320018E-1	-9.229256630E0	5.367680788E-1	9.251147885E0
1.237376024E1	2.605255246E-1	-7.549175262E0	-1.095432281E0	7.632685804E0
1.239208612E1	1.703517735E-1	-5.837648392E0	-6.270381212E-1	5.873698603E0
1.241043763E1	-8.756933808E-1	-3.082654476E0	1.809008002E0	3.679960254E0
1.242877633E1	-2.660650730E0	8.429269791E-1	1.510968208E0	3.173738037E0
1.244710221E1	-4.441575527E0	5.761357307E0	-3.339729786E0	8.004662781E0
1.246545373E1	-3.948568821E0	1.139053440E1	-4.235685349E0	1.277796932E1
1.248379242E1	-1.288894773E0	1.716759300E1	1.325474977E0	1.726685794E1
1.250211831E1	8.032890558E-1	2.127972031E1	4.364413738E0	2.173752233E1
1.252046977E1	8.635665178E-1	2.186605644E1	2.083984852E0	2.198211010E1
1.253880846E1	-1.254540324E0	1.974334335E1	-1.572340727E-1	1.978378631E1
1.255713440E1	-4.675874710E0	1.691112709E1	1.713580012E0	1.762913442E1
1.257548586E1	-5.049043179E0	1.533772469E1	4.133073330E0	1.666796120E1
1.259382456E1	-4.490548134E0	1.305117226E1	2.421906948E0	1.401298516E1
1.261215050E1	-3.403743982E0	1.053868389E1	-2.341060162E0	1.131944760E1
1.263050195E1	-1.693519115E0	7.788411140E0	-3.761466026E0	8.813397855E0
1.264884065E1	-1.116170406E0	3.845010757E0	-3.502841949E0	5.319759940E0
1.266716659E1	-1.068183064E0	-7.471275330E-1	-3.481701851E0	3.717722742E0
1.268551805E1	-7.441897392E-1	-4.162206650E0	-4.315979004E0	6.041974621E0
1.270385675E1	3.089823127E-1	-5.895487785E0	-3.454547882E0	6.840040012E0
1.272218263E1	1.679829836E0	-8.169101715E0	2.113112926E0	8.603563061E0
1.274053414E1	1.520498157E0	-9.379467964E0	5.368756294E0	1.091374721E1
1.275887284E1	3.123127222E-1	-9.380880356E0	2.700067997E0	9.766720160E0
1.277719873E1	-5.539487600E-1	-8.555653572E0	-1.529253602E0	8.708885339E0
1.279555018E1	-9.920061827E-1	-8.315725327E0	-1.139620304E0	8.451869522E0
1.281388893E1	-1.122692704E0	-7.885425568E0	-1.142990232E0	8.046539751E0
1.283221482E1	-1.319837332E0	-7.609454155E0	-2.031126261E0	7.985689514E0
1.285056628E1	-1.190556288E0	-7.739620209E0	-2.647348881E0	8.266051134E0
1.286890498E1	-9.271434546E-1	-7.765509605E0	-3.378165722E0	8.519080823E0
1.288723091E1	-1.071737409E0	-8.955131531E0	-2.290259838E0	9.305283012E0
1.290558237E1	-1.234909773E0	-1.021094513E1	-8.790658712E-1	1.032284648E1
1.292392107E1	-1.291277289E0	-1.057697773E1	-1.623188376E0	1.077843196E1
1.294225977E1	-7.886155844E-1	-9.665829659E0	-2.885210991E0	1.011803439E1
1.296059846E1	-3.483003378E-1	-8.264228821E0	-1.673080564E0	8.439075169E0
1.297893716E1	-3.082855940E-1	-7.558430195E0	-6.792348623E-1	7.595147597E0
1.299727586E1	-2.060934901E-1	-7.113467693E0	-2.235491276E-1	7.119962877E0
1.301561456E1	3.565695286E-1	-5.298310280E0	-2.073924541E0	5.700911914E0
1.303395326E1	-8.789947629E-2	-2.665579319E0	-3.118998766E0	4.103802228E0
1.305227914E1	-1.771398187E0	1.207751274E0	-1.425208807E0	2.574438739E0
1.307063065E1	-2.237417936E0	7.827580452E0	4.750145674E-1	8.154918368E0
1.308896930E1	8.123220205E-1	1.522424698E1	6.523092985E-1	1.525985159E1
1.310729524E1	2.638616085E0	1.772601128E1	4.570543289E0	1.849496246E1
1.312564669E1	1.103344917E0	1.467993832E1	7.379749298E0	1.646750311E1
1.314398539E1	-1.867180824E0	1.437906837E1	4.817853928E0	1.527925679E1
1.316231133E1	-3.864102840E0	1.636674881E1	6.662023067E-1	1.682990145E1
1.318066279E1	-5.491065502E0	1.765092087E1	-2.959339619E0	1.872069707E1
1.319900148E1	-4.351678371E0	1.874457169E1	-3.336308479E0	1.953015685E1
1.321732737E1	-2.162495852E0	1.848698425E1	-1.882042885E-1	1.861398388E1
1.323567888E1	-2.034059048E0	1.499906635E1	8.818958998E-1	1.516202915E1
1.325401758E1	-3.255798578E0	8.823801041E0	-1.523559451E0	9.527902318E0
1.327234346E1	-3.770809650E0	3.316852570E0	-4.447845459E0	6.708490562E0
1.329069492E1	-1.065494776E0	1.002861023E0	-1.878972054E0	2.381500646E0
1.330903362E1	1.611858964E0	-1.617352486E0	2.394277096E0	3.308546689E0
1.332735956E1	1.945501208E0	-5.498043537E0	4.052669048E0	7.101942277E0
1.334571102E1	8.535965681E-1	-9.247409821E0	1.854395747E0	9.470058029E0
1.336404971E1	-1.543187499E-1	-1.241126156E1	-5.850864649E-1	1.242600314E1
1.338237560E1	-1.085291505E0	-1.386677265E1	-2.625190258E0	1.415474709E1
1.340072706E1	-8.201788664E-1	-1.282536888E1	-3.368920565E0	1.328579716E1
1.341906576E1	2.057090402E-2	-1.057280445E1	-2.079015493E0	1.077529223E1
1.343739169E1	-2.264767885E-3	-8.717888832E0	-2.080280781E0	8.962653566E0
1.345574315E1	-2.331203520E-1	-7.418976784E0	-2.079761267E0	7.708499760E0
1.347408185E1	-1.267905980E-1	-7.169031143E0	-1.198766708E0	7.269671589E0
1.349240774E1	5.204592645E-2	-7.245773792E0	7.145547867E-1	7.281108100E0
1.351075925E1	5.957493782E-1	-7.803524971E0	1.263776779E0	7.927613200E0
1.352909794E1	7.469540238E-1	-8.210732460E0	-9.361682534E-1	8.297618866E0
1.354742383E1	9.231880903E-1	-9.454911232E0	-3.025167942E0	9.969917940E0
1.356577529E1	4.267685711E-1	-1.170390224E1	-3.905308247E0	1.234564262E1
1.358411398E1	6.035482287E-1	-1.239953613E1	-4.161600113E0	1.309319221E1
1.360245268E1	1.590906620E0	-1.090747929E1	-4.309606075E0	1.183540421E1
1.362079138E1	2.712591648E0	-8.745730400E0	-3.184965611E0	9.694841908E0
1.363913003E1	2.282994747E0	-7.290189743E0	-4.908804893E-1	7.655056836E0
1.365745596E1	1.314480901E0	-6.237665176E0	1.671626806E0	6.590194464E0
1.367580742E1	1.045873880E0	-3.630585670E0	8.945899010E-1	3.882691795E0
1.369414612E1	-5.543604493E-1	1.807188034E0	-2.423243284E0	3.073329158E0
1.371247201E1	-2.989817619E0	7.505314827E0	-2.665766954E0	8.507354084E0
1.373082352E1	-2.800980568E0	1.335967636E1	1.019810438E0	1.368818680E1
1.374916216E1	-2.421141624E0	1.753155136E1	4.711467743E0	1.831434269E1
1.376748810E1	-2.172741890E0	2.043330383E1	6.404737473E0	2.152350750E1
1.378583956E1	-1.342535973E0	2.035330200E1	8.318128586E0	2.202840367E1
1.380417826E1	-2.309728861E0	1.903506851E1	6.332435608E0	2.019327664E1
1.382250414E1	-4.209261417E0	1.821342468E1	2.669605494E0	1.888315423E1
1.384085560E1	-3.379159689E0	1.749859428E1	1.834372997E0	1.791603880E1
1.385919430E1	-1.567448020E0	1.680375290E1	1.760110855E0	1.696823488E1
1.387752024E1	-5.293809772E-1	1.395098019E1	8.591871262E-1	1.398743346E1
1.389587169E1	-9.776478410E-1	8.510169029E0	-1.950914025E0	8.785490182E0
1.391421034E1	-1.571866155E0	2.562529564E0	-4.576941013E0	5.475920928E0
1.393253628E1	-1.350722194E0	-1.374287605E0	-4.960377216E0	5.321509090E0
1.395088774E1	-1.789465249E-1	-4.281884670E0	-1.471099377E0	4.531080618E0
1.396922643E1	8.601735234E-1	-6.826321602E0	2.704671144E0	7.392821593E0
1.398755232E1	6.565535069E-1	-9.348711014E0	3.642902374E0	1.005485941E1
1.400590378E1	-4.866347313E-1	-1.189898109E1	1.960489988E0	1.206922058E1
1.402424248E1	-1.463430285E0	-1.294896030E1	-1.174929857E0	1.308425242E1
1.404256836E1	-1.675000310E0	-1.266869926E1	-2.610053778E0	1.304277378E1
1.406091987E1	-1.416891813E0	-1.165350151E1	-2.337966204E0	1.196986908E1
1.407925852E1	-1.125620723E0	-9.725864410E0	-3.372824192E0	1.035545284E1
1.409758445E1	-9.343004823E-1	-8.305204391E0	-4.500140190E0	9.492133538E0
1.411593591E1	-4.551922679E-1	-6.811168671E0	-4.914870262E0	8.411609142E0
1.413427456E1	1.893638372E-1	-5.820503235E0	-3.109566689E0	6.601781696E0
1.415260050E1	3.205766678E-1	-6.884671688E0	-1.183443069E-1	6.893147251E0
1.417095195E1	2.559473515E-1	-8.298728943E0	1.045477748E0	8.368239650E0
1.418929065E1	-3.951978683E-1	-9.108280182E0	-1.423142314E0	9.227257625E0
1.420761654E1	-7.120382786E-1	-9.472495079E0	-3.788979530E0	1.022699992E1
1.422596800E1	-7.027019262E-1	-1.000567055E1	-2.347554684E0	1.030137108E1
1.424430669E1	-7.879590988E-2	-9.578850746E0	4.737185240E-1	9.590881068E0
1.426263258E1	6.010818481E-1	-7.804374218E0	2.072390556E0	8.097182161E0
1.428098404E1	1.143858194E0	-4.565419674E0	6.963326931E-1	4.757767080E0
1.429932274E1	-5.939787030E-1	-2.246868134E0	-2.736976147E-1	2.340114846E0
1.431764862E1	-2.644987106E0	2.802333832E-1	-7.162420750E-1	2.754539935E0
1.433600008E1	-3.048019886E0	6.251338005E0	-4.533816576E-1	6.969591595E0
1.435433878E1	-1.664714098E0	1.352104759E1	1.802107096E-1	1.362433400E1
1.437266466E1	-1.005939603E0	1.760831833E1	3.077161789E0	1.790345535E1
1.439101612E1	-8.381102085E-1	1.942039871E1	4.460152626E0	1.994360239E1
1.440935482E1	-5.484459400E-1	2.161976814E1	3.719194412E0	2.194419227E1
1.442768070E1	-2.658129036E-1	2.126136017E1	3.315080643E0	2.151989434E1
1.444603216E1	-1.596673489E0	1.963425827E1	2.552674294E0	1.986377633E1
1.446437086E1	-2.564594269E0	1.658181572E1	1.295229912E0	1.682888519E1
1.448269674E1	-3.121051788E0	1.388738537E1	-1.992478967E0	1.437255750E1
1.450104820E1	-3.309885263E0	1.016528416E1	-4.479017735E0	1.159094225E1
1.451938690E1	-2.741261005E0	7.518912315E0	-5.540793419E0	9.733907027E0
1.453771279E1	-1.542133927E0	6.394242287E0	-3.951865196E0	7.673444468E0
1.455606425E1	-5.047755241E-1	3.344881058E0	-8.287805319E-1	3.482801285E0
1.457440294E1	-1.080233008E-1	-1.651536942E0	1.584613204E0	2.291340723E0
1.459272883E1	-4.210896492E-1	-6.656407833E0	2.155108452E0	7.009249187E0
1.461108029E1	-5.777854919E-1	-1.028308105E1	6.891971827E-1	1.032233427E1
1.462941899E1	-6.865541935E-1	-1.194458771E1	-9.169327617E-1	1.199938739E1
1.464774487E1	-3.633078635E-1	-1.258767128E1	-9.526847601E-1	1.262889817E1
1.466609633E1	-1.869076490E-1	-1.229141903E1	-9.456107616E-1	1.232915634E1
1.468443503E1	-5.972841382E-1	-1.134147263E1	-1.626110077E0	1.147301110E1
1.470276091E1	-6.602187157E-1	-1.007715321E1	-2.353066206E0	1.036927317E1
1.472111237E1	-7.328700423E-1	-8.490215302E0	-3.650083065E0	9.270596569E0
1.473945102E1	-8.062754273E-1	-7.848565102E0	-3.651953697E0	8.694068094E0
1.475777695E1	-8.735389113E-1	-8.150403023E0	-1.826588750E0	8.398128728E0
1.477612841E1	-9.190878272E-1	-9.220837593E0	-1.118428707E-1	9.267204389E0
1.479446706E1	-9.995086193E-1	-9.805535316E0	2.925437689E-1	9.860685685E0
1.481280576E1	-8.419701457E-1	-9.712117195E0	-3.803091049E-1	9.755960699E0
1.483114440E1	-9.813904762E-1	-9.147595406E0	-1.300497293E0	9.291551118E0
1.484948310E1	-9.475798607E-1	-8.686124802E0	-7.109487057E-1	8.766534077E0
1.486780899E1	1.573400795E-1	-7.047600746E0	1.680864215E0	7.246981212E0
1.488616044E1	1.828571677E0	-5.077247620E0	3.028561592E0	6.188239094E0
1.490449909E1	2.252896070E0	-2.492248535E0	-3.619432449E-1	3.379030390E0
1.492282503E1	1.249391198E0	-1.204557419E-1	-1.831677437E0	2.220479719E0
1.494117643E1	-4.338632226E-1	2.446219444E0	-6.219637394E-1	2.561067308E0
1.495951513E1	-1.437569499E0	5.764142990E0	-1.519879699E0	6.132045725E0
1.497784102E1	-8.915234804E-1	9.014057159E0	-2.541279316E0	9.407770254E0
1.499619248E1	7.542213202E-1	1.081131744E1	1.168413758E0	1.090039565E1
1.501453117E1	7.647174001E-1	1.111881351E1	2.621865511E0	1.144932249E1
1.503285706E1	-5.259604454E-1	1.126449203E1	8.795292377E-1	1.131101175E1
1.505120852E1	-2.725243330E0	1.169754410E1	-8.227439523E-1	1.203895331E1
1.506954716E1	-5.499019623E0	1.395926380E1	-1.746920466E0	1.510470105E1
1.508787305E1	-6.255665302E0	1.766972542E1	-9.676160812E-1	1.876935869E1
1.510622451E1	-4.413163185E0	1.940505600E1	2.015034676E0	2.000231418E1
1.512456320E1	-3.545363426E0	1.670777130E1	2.508134842E0	1.726296510E1
1.514288909E1	-3.919315577E0	1.119378281E1	-3.557718992E-1	1.186542801E1
1.516124055E1	-3.341145039E0	5.775523186E0	-3.841622829E0	7.699219714E0
1.517957919E1	-1.269168258E0	2.543113708E0	-4.081282139E0	4.973437372E0
1.519790508E1	1.420924664E0	1.442146301E0	-2.274967432E0	3.045371844E0
1.521625654E1	3.457928658E0	-5.108642578E-1	-1.647174835E0	3.864121870E0
1.523459524E1	3.707460403E0	-4.945502281E0	5.097110271E-1	6.201859462E0
1.525292112E1	2.759766579E0	-1.017432404E1	2.156952143E0	1.076037284E1
1.527127258E1	1.081040144E0	-1.368147755E1	-2.783627510E-1	1.372694290E1
1.528961123E1	-2.641962767E-1	-1.452179337E1	-2.196551800E0	1.468935404E1
1.530793711E1	-5.394334197E-1	-1.327978230E1	-2.439820290E0	1.351282092E1
1.532628857E1	-7.606806755E-1	-1.088373280E1	-3.630836010E0	1.149857577E1
1.534462727E1	-1.208417416E0	-8.986259460E0	-4.069879055E0	9.938664260E0
1.536295315E1	-1.336650372E0	-7.772252083E0	-2.894137383E0	8.400629015E0
1.538130461E1	-1.085637569E0	-6.898674011E0	-1.387999535E0	7.120172382E0
1.539964326E1	-3.473505080E-1	-7.238053799E0	1.106246948E0	7.330338156E0
1.541798190E1	-3.450044394E-1	-8.602616310E0	1.057983041E0	8.674293260E0
1.543632060E1	-9.444307089E-1	-9.866516113E0	-9.723601341E-1	9.959195440E0
1.545465924E1	-1.204825044E0	-1.085715675E1	-1.970849991E0	1.110016693E1
1.547299794E1	-9.054245949E-1	-1.088733959E1	-1.792310715E0	1.107096811E1
1.549133659E1	-5.475511551E-1	-9.527018547E0	-1.749743819E0	9.701829626E0
1.550967529E1	5.017070770E-1	-6.713726044E0	-1.478412867E0	6.892860943E0
1.552800117E1	1.753716469E0	-3.507423401E0	-1.646627426E0	4.253107364E0
1.554635263E1	2.457019329E0	-1.781298161E0	1.189395308E0	3.259544189E0
1.556469128E1	2.247852325E0	2.756682396E0	2.943476200E0	4.616945966E0
1.558301716E1	9.416913986E-1	7.829124451E0	-1.206691861E-1	7.886477884E0
1.560136862E1	-1.154438972E0	1.075818539E1	-2.971572399E0	1.122058486E1
1.561970732E1	-2.568630219E0	1.333144760E1	1.276035190E0	1.363648130E1
1.563803320E1	-3.606188297E0	1.722829247E1	3.010785818E0	1.785730905E1
1.565638461E1	-2.946823835E0	1.867038345E1	-3.904081285E-1	1.890553907E1
1.567472331E1	-1.044254184E0	1.597029591E1	-1.185272455E0	1.604823009E1
1.569304919E1	-3.802530050E0	1.326258850E1	-2.401567459E0	1.400439270E1
1.571140065E1	-8.654901505E0	1.470341301E1	-4.432850838E0	1.762804132E1
1.572973930E1	-8.449316978E0	1.604767227E1	-2.743279934E0	1.834241880E1
1.574806518E1	-4.923609734E0	1.637005234E1	-3.049519539E0	1.736433459E1
1.576641664E1	-3.496364117E0	1.271586609E1	2.795600891E-1	1.319075306E1
1.578475534E1	-2.928658009E0	5.389101028E0	2.642786503E0	6.678605253E0
1.580308123E1	-2.084757328E0	-1.643279076E0	1.586143374E0	3.092317908E0
1.582143268E1	-6.704890728E-2	-5.190195084E0	-1.817214966E0	5.499535507E0
1.583977133E1	1.954355001E0	-7.536748886E0	-1.971486807E0	8.031740003E0
1.585809721E1	3.131132126E0	-9.618088722E0	7.048662305E-1	1.013945045E1
1.587644867E1	2.807059765E0	-1.125243568E1	2.944889784E0	1.196533615E1
1.589478732E1	1.728811979E0	-1.216623497E1	2.598998547E0	1.256028892E1
1.591311320E1	5.481568575E-1	-1.173575783E1	-8.488019109E-1	1.177917452E1
1.593146466E1	-2.653034329E-1	-1.046340275E1	-2.037010193E0	1.066314182E1
1.594980331E1	-7.574542165E-1	-9.232136726E0	-2.012206793E0	9.479190978E0
1.596812925E1	-4.326266646E-1	-8.046569824E0	-1.612611055E0	8.217966061E0
1.598648065E1	-1.630629301E-1	-7.526479244E0	-1.233975410E0	7.628707272E0
1.600481935E1	4.221364260E-1	-7.509689331E0	-8.975528479E-1	7.574908193E0
1.602315800E1	7.490240335E-1	-7.492342949E0	-1.719777584E0	7.723592092E0
1.604149669E1	7.062729597E-1	-8.373000145E0	-2.174456120E0	8.679528348E0
1.605983534E1	3.671619892E-1	-9.798821449E0	-1.381901860E0	9.902593725E0
1.607817398E1	-4.097416252E-2	-1.038296223E1	-4.761580527E-1	1.039395545E1
1.609651268E1	-2.541384101E-1	-1.003827477E1	-7.602104545E-1	1.007022674E1
1.611485133E1	1.426380426E-1	-8.079882622E0	-2.040086985E0	8.334674781E0
1.613317721E1	6.958552599E-1	-6.676558495E0	-1.051161289E-1	6.713545805E0
1.615152867E1	1.137684822E0	-5.564443588E0	3.076340675E0	6.459197408E0
1.616986732E1	1.412220955E0	-3.362827301E0	2.957212210E0	4.695538258E0
1.618819320E1	7.546327710E-1	4.737987518E-1	-2.758343220E-1	9.327595883E-1
1.620654466E1	-2.155867100E0	3.119221687E0	-2.076195717E0	4.322949866E0
1.622488331E1	-5.069922447E0	7.780618668E0	-2.227423429E0	9.550055267E0
1.624320925E1	-4.310338020E0	1.414316463E1	1.707452655E0	1.488366602E1
1.626156065E1	-1.082468629E0	2.077847481E1	2.837758541E0	2.099927683E1
1.627989935E1	7.128520608E-1	2.211267662E1	6.001155853E0	2.292362312E1
1.629823800E1	6.350469589E-2	1.941770363E1	6.969623566E0	2.063072708E1
1.631657664E1	-3.170341253E0	1.675690460E1	2.116053581E0	1.718495267E1
1.633491534E1	-5.827096939E0	1.661715698E1	-3.267302513E0	1.790978031E1
1.635324122E1	-3.391440630E0	1.673455048E1	-4.079204082E0	1.755525435E1
1.637159263E1	-1.225010157E-1	1.575453091E1	-2.370339870E0	1.593231815E1
1.638993133E1	8.005082607E-1	1.202217484E1	-1.952640057E0	1.220599461E1
1.640825721E1	-3.954065442E-1	5.280764580E0	-2.239731312E0	5.749714535E0
1.642660867E1	-1.336352825E0	-1.416842461E0	-3.432549238E0	3.946603059E0
1.644494732E1	-7.820328474E-1	-5.739824295E0	-2.957655430E0	6.504220472E0
1.646327320E1	6.473090649E-1	-8.184134483E0	2.127779126E-1	8.212450347E0
1.648162466E1	1.506451488E0	-1.003158665E1	2.893418789E0	1.054864916E1
1.649996331E1	1.027326822E0	-1.161733437E1	3.723186970E0	1.224254791E1
1.651828919E1	-5.092859268E-3	-1.264705563E1	2.304798126E0	1.285535438E1
1.653664065E1	-1.331089497E0	-1.234857750E1	-1.763805151E-1	1.242136368E1
1.655497930E1	-1.729636908E0	-1.131199169E1	-1.594417334E0	1.155400219E1
1.657330518E1	-1.081964493E0	-8.953370094E0	-1.934751391E0	9.223705663E0
1.659165664E1	-4.802933633E-1	-7.113270283E0	-1.539050102E0	7.293693923E0
1.660999529E1	1.686136425E-1	-6.333006382E0	-4.931984842E-1	6.354419339E0
1.662833393E1	9.084999561E-1	-6.261266708E0	2.994227409E-1	6.333915609E0
1.664667258E1	1.012145519E0	-7.420005798E0	5.538164377E-1	7.509170210E0
1.666501128E1	1.817709506E-1	-9.513912201E0	-6.467835307E-1	9.537604258E0
1.668333716E1	-6.802273393E-1	-1.109094715E1	-3.438561916E0	1.163166050E1
1.670168857E1	-1.433242559E0	-1.091373825E1	-5.580721855E0	1.234132583E1
1.672002727E1	-1.116913795E0	-1.012134838E1	-3.906606436E0	1.090645512E1
1.673835315E1	-2.321015298E-1	-9.188858032E0	-1.664969683E0	9.341365377E0
1.675670456E1	1.104864120E0	-8.016663551E0	1.470086575E-1	8.093777287E0
1.677504326E1	2.228535652E0	-4.721623898E0	5.857152939E-1	5.253871505E0
1.679336914E1	1.493621588E0	-2.647075653E-1	1.021153808E0	1.828587061E0
1.681172055E1	-9.240112305E-1	3.478610039E0	3.532392979E-1	3.616531841E0
1.683005919E1	-2.143246174E0	5.803224564E0	8.666207790E-1	6.246755243E0
1.684838508E1	-1.199862242E0	9.909945488E0	6.740528345E-1	1.000505053E1
1.686673654E1	1.288919747E-1	1.568864536E1	1.207563043E0	1.573557800E1
1.688507518E1	-3.733449578E-1	1.753455162E1	1.785139441E0	1.762914093E1
1.690340107E1	-2.168930769E0	1.552336884E1	-2.756015062E-1	1.567658116E1
1.692175253E1	-3.539206505E0	1.432956028E1	-3.318960428E0	1.512870711E1
1.694009117E1	-3.189425230E0	1.558391953E1	-2.094833374E0	1.604429207E1
1.695841706E1	-2.653746367E0	1.650514603E1	2.447077036E0	1.689527748E1
1.697676852E1	-3.029332399E0	1.576649570E1	3.258303642E0	1.638217886E1
1.699510716E1	-3.804074287E0	1.206328583E1	9.996194839E-1	1.268830506E1
1.701343305E1	-4.100517273E0	7.408424377E0	-2.064028502E0	8.715457952E0
1.703178445E1	-2.595228672E0	4.535228729E0	-3.290095329E0	6.174806779E0
1.705012315E1	-8.339610696E-1	2.057287216E0	-3.099483967E0	3.812443130E0
1.706844904E1	5.385070443E-1	-2.841196060E-1	-2.357658148E0	2.435008363E0
1.708680044E1	1.757634282E0	-2.039159298E0	-1.177128792E0	2.938210528E0
1.710513909E1	2.626684666E0	-4.195076466E0	-2.878413200E-1	4.957922096E0
1.712346498E1	2.839414358E0	-6.255008698E0	5.478603840E-1	6.891121730E0
1.714181643E1	1.734547853E0	-8.261863708E0	1.536798239E0	8.580722407E0
1.716015508E1	2.191821337E-1	-9.971951485E0	1.881620884E0	1.015028839E1
1.717848096E1	-8.203356862E-1	-1.106996346E1	3.312739134E-1	1.110525929E1
1.719683242E1	-1.953019381E0	-1.047157955E1	-1.282477617E0	1.072907321E1
1.721517107E1	-1.927806854E0	-9.348987579E0	-1.877664447E0	9.728598656E0
1.723350971E1	-1.477815866E0	-8.684205055E0	-1.381623030E0	8.916739279E0
1.725184836E1	-1.304379344E0	-9.229772568E0	-1.032701492E0	9.378516914E0
1.727018706E1	-1.305582047E0	-1.019743061E1	-1.993062258E0	1.047207872E1
1.728851294E1	-1.350428939E0	-1.142722511E1	-3.093575239E0	1.191534053E1
1.730686435E1	-1.199104071E0	-1.257674980E1	-3.990574360E0	1.324904411E1
1.732520300E1	-7.877094746E-1	-1.214681149E1	-4.183406830E0	1.287114634E1
1.734352888E1	2.471717745E-1	-1.016630363E1	-3.009027958E0	1.060514369E1
1.736188034E1	1.335516334E0	-7.781609535E0	-9.976415634E-1	7.958161818E0
1.738021899E1	2.313165665E0	-6.075997353E0	9.847449064E-1	6.575576154E0
1.739854487E1	2.090167522E0	-4.073340416E0	1.615899444E0	4.855103853E0
1.741689633E1	1.276243925E0	-6.439781189E-2	1.987858534E0	2.363160423E0
1.743523498E1	6.183060408E-1	6.813091278E0	1.228054523E0	6.950441212E0
1.745356086E1	1.202352270E-1	1.226772499E1	2.875271320E0	1.260074276E1
1.747191227E1	2.612136304E-2	1.321204185E1	5.876105785E0	1.445985309E1
1.749025096E1	-1.259164810E-1	1.364848900E1	2.855679035E0	1.394460504E1
1.750857680E1	-9.071053267E-1	1.514809322E1	-4.760568619E0	1.590442020E1
1.752692826E1	-2.014005899E0	1.377689362E1	-7.285409927E0	1.571420425E1
1.754526690E1	-2.617233276E0	1.242235756E1	-5.452987194E0	1.381665469E1
1.756359279E1	-4.349155426E0	1.338695049E1	-4.423135757E0	1.475431213E1
1.758194425E1	-3.443237543E0	1.491120911E1	-3.172649860E0	1.562900345E1
1.760028289E1	-1.029091835E0	1.542836094E1	-9.073219299E-1	1.548924092E1
1.761860878E1	4.978867173E-1	1.305626202E1	-5.415028334E-1	1.307696809E1
1.763696018E1	2.989058495E-1	8.604345322E0	-2.927767277E0	9.093729947E0
1.765529888E1	-1.791740954E-1	3.706714630E0	-4.310387611E0	5.687818393E0
1.767362477E1	7.116359472E-2	6.011295319E-2	-3.285141468E0	3.286461971E0
1.769197617E1	9.876659513E-1	-3.554130077E0	5.212018490E-1	3.725449772E0
1.771031482E1	1.336001873E0	-7.070016861E0	3.759402275E0	8.118075196E0
1.772864070E1	2.904435098E-1	-9.957344055E0	4.018973351E0	1.074175055E1
1.774699216E1	-8.266359568E-1	-1.193264866E1	2.428872347E0	1.220536160E1
1.776533081E1	-1.191227674E0	-1.217568588E1	5.871462822E-1	1.224790149E1
1.778365669E1	-1.169963956E0	-1.147735119E1	-4.192673266E-1	1.154444416E1
1.780200810E1	-1.090553999E0	-1.038595867E1	-1.281547308E0	1.052139768E1
1.782034680E1	-1.333008409E0	-9.689402580E0	-2.290797472E0	1.004535648E1
1.783868544E1	-1.262002349E0	-9.435688972E0	-2.354186773E0	9.806481106E0
1.785702409E1	-9.178104401E-1	-9.565692902E0	-1.546735287E0	9.733306054E0
1.787536274E1	-8.646543622E-1	-9.820127487E0	-1.277104735E0	9.940499360E0
1.789370143E1	-7.000758052E-1	-9.866000175E0	-1.125932932E0	9.954686864E0
1.791204008E1	-2.405370772E-1	-9.301517487E0	-1.262433648E0	9.389878825E0
1.793037872E1	1.737788320E-1	-8.466959000E0	-1.169182539E0	8.549069048E0
1.794871737E1	1.611385345E-1	-8.151542664E0	-1.108380795E0	8.228129885E0
1.796705607E1	1.917054057E-1	-8.032404900E0	-1.277596235E0	8.135633446E0
1.798539471E1	6.974337101E-1	-6.808406830E0	-6.075873375E-1	6.870951878E0
1.800372060E1	1.383394480E0	-3.500340462E0	1.444399238E0	4.031433094E0
1.802207201E1	9.263204336E-1	6.885604858E-1	1.521642089E0	1.909863800E0
1.804041065E1	-1.303567410E0	4.936489105E0	-3.871382475E-1	5.120360212E0
1.805873654E1	-3.443845749E0	9.430950165E0	-1.956820965E0	1.022898054E1
1.807708800E1	-3.570909500E0	1.389387989E1	6.478036642E-1	1.436004675E1
1.809542664E1	-7.997063994E-1	1.788677216E1	5.468842030E0	1.872122810E1
1.811375253E1	2.459627151E0	1.955096626E1	9.039623260E0	2.167959493E1
1.813210398E1	2.544804096E0	1.636367607E1	7.446615219E0	1.815758796E1
1.815044263E1	-1.873484969E0	1.247190571E1	4.373748302E-1	1.261941657E1
1.816876852E1	-6.156713486E0	1.208388615E1	-4.746848106E0	1.436864615E1
1.818711992E1	-4.985555649E0	1.350509930E1	-4.122735023E0	1.497465914E1
1.820545862E1	-2.462894440E0	1.388103867E1	-2.806007624E0	1.437437867E1
1.822378445E1	-1.866488218E0	1.242633629E1	-3.567599535E0	1.306236496E1
1.824213591E1	-2.779017210E0	8.558247566E0	-4.254766464E0	9.953370069E0
1.826047456E1	-3.023393154E0	3.990092278E0	-3.176827431E0	5.929078771E0
1.827880044E1	-1.705494881E0	8.266887665E-1	-9.209418893E-1	2.107192698E0
1.829715190E1	5.255863667E-1	-2.118585587E0	1.557433963E0	2.681463493E0
1.831549055E1	1.504397392E0	-5.405486584E0	1.731027365E0	5.871878103E0
1.833381643E1	1.727463007E0	-8.582477570E0	6.607537270E-1	8.779501419E0
1.835216784E1	1.473302245E0	-1.072409248E1	-1.582329273E-1	1.082597879E1
1.837050654E1	1.069795132E0	-1.147339439E1	-9.819961786E-1	1.156492789E1
1.838883237E1	9.086116552E-1	-1.138780212E1	-7.346348763E-1	1.144758930E1
1.840718383E1	4.469448328E-1	-1.098751926E1	-8.751742840E-1	1.103137658E1
1.842552248E1	-3.074529767E-1	-1.033015537E1	-1.805931568E0	1.049133100E1
1.844386112E1	-1.077022910E0	-9.503237724E0	-2.253103733E0	9.825883269E0
1.846219982E1	-1.038348436E0	-8.461930275E0	-1.858005285E0	8.725515176E0
1.848053846E1	-5.388788581E-1	-7.295923233E0	-9.454215765E-1	7.376632579E0
1.849887711E1	2.986327410E-1	-6.767216682E0	-3.004819155E-1	6.780464034E0
1.851721576E1	8.416528702E-1	-7.341773510E0	-2.539796829E-1	7.394222306E0
1.853555440E1	7.020341158E-1	-8.413883209E0	-1.544747829E0	8.583270263E0
1.855388029E1	6.034553051E-1	-9.206426620E0	-3.380969286E0	9.826159104E0
1.857223174E1	6.340902448E-1	-8.786665916E0	-4.956531525E0	1.010815379E1
1.859057039E1	1.045876980E0	-6.725510597E0	-4.248425961E0	8.023432843E0
1.860889628E1	1.134844065E0	-4.651218414E0	-1.217353702E0	4.940005448E0
1.862724768E1	8.412483335E-1	-3.098692894E0	2.331840038E0	3.968258355E0
1.864558638E1	4.139841795E-1	-8.579053879E-1	2.633282185E0	2.800278490E0
1.866391221E1	-1.095635891E0	4.258956909E0	-7.129139900E-1	4.455039654E0
1.868226367E1	-2.514967680E0	7.735062599E0	-6.007614136E-1	8.155805915E0
1.870060232E1	-2.362525702E0	1.022617340E1	1.826771259E0	1.065332077E1
1.871892820E1	-1.443479538E0	1.358778381E1	9.086062312E-1	1.369441738E1
1.873727961E1	-1.435482979E0	1.671338654E1	-3.324439287E0	1.710116363E1
1.875561831E1	-1.437315941E0	1.896852875E1	-4.765885830E0	1.961082935E1
1.877394419E1	-1.132691860E0	2.007263565E1	-1.613049507E0	2.016917503E1
1.879229560E1	-1.569313288E0	1.841754913E1	-1.581326127E-2	1.848429361E1
1.881063425E1	-2.087844849E0	1.579759407E1	-7.348642349E-1	1.595189957E1
1.882896013E1	-2.587734461E0	1.396438122E1	-2.840951204E0	1.448348426E1
1.884731154E1	-2.925098658E0	9.793324471E0	-1.085725665E0	1.027833676E1
1.886565024E1	-2.858137608E0	5.899231911E0	3.053643703E-1	6.562250766E0
1.888397607E1	-2.627174854E0	2.173122406E0	2.811723948E-1	3.421047591E0
1.890232753E1	-1.678300381E0	-1.462864876E0	-2.642328143E-1	2.241982336E0
1.892066617E1	-4.649999142E-1	-3.455484867E0	-8.975690603E-1	3.600309821E0
1.893899206E1	2.486953139E-1	-6.106654167E0	5.985197425E-1	6.140952724E0
1.895734346E1	3.523926139E-1	-9.241002083E0	3.028551102E0	9.731003125E0
1.897568211E1	1.990413368E-1	-1.086719704E1	3.124035835E0	1.130907551E1
1.899400800E1	-1.802423298E-1	-1.121053886E1	8.209853768E-1	1.124200542E1
1.901235945E1	-2.698178291E-1	-1.062408066E1	-1.984082222E0	1.081112731E1
1.903069810E1	1.253952831E-1	-9.563230515E0	-3.411446333E0	1.015426353E1
1.904903675E1	5.017164350E-1	-9.169404984E0	-2.826442957E0	9.608250981E0
1.906737539E1	7.838804722E-1	-9.077654839E0	-2.008477211E0	9.330180420E0
1.908571404E1	7.290152907E-1	-9.172991753E0	-1.757296324E0	9.368208546E0
1.910405268E1	8.597604036E-1	-9.538669586E0	-2.029262543E0	9.789959749E0
1.912239133E1	4.924875498E-1	-1.048522568E1	-2.006280422E0	1.068679852E1
1.914073003E1	1.681666672E-1	-1.187946606E1	-1.180724382E0	1.193918355E1
1.915906867E1	1.144585013E-1	-1.250701714E1	-1.056455851E0	1.255207861E1
1.917740732E1	1.456883252E-1	-1.134311676E1	-1.467170477E0	1.143853628E1
1.919574596E1	6.092412472E-1	-9.084845543E0	-1.392546415E0	9.211122568E0
1.921407185E1	9.425330162E-1	-6.681324959E0	2.089214325E-2	6.747511258E0
1.923242326E1	1.575303197E0	-4.655739784E0	1.803640723E0	5.235514584E0
1.925076190E1	1.382158160E0	-2.467231750E0	2.907126427E0	4.055733935E0
1.926908779E1	-9.499683380E-1	4.027519226E-1	-1.681328416E-1	1.045426997E0
1.928743919E1	-3.720920563E0	4.327984810E0	-4.322302341E0	7.159539083E0
1.930577784E1	-4.437610626E0	9.672400475E0	-3.380830765E0	1.116591849E1
1.932410372E1	-2.232478619E0	1.428207588E1	1.551641583E0	1.453854339E1
1.934245513E1	1.427149773E-2	1.681303406E1	3.255415678E0	1.712530435E1
1.936079378E1	1.545234084E0	1.779936218E1	2.235397100E0	1.800561142E1
1.937913248E1	9.862149954E-1	1.693491554E1	1.859418869E0	1.706521090E1
1.939747112E1	-2.547928333E0	1.515820503E1	1.035974503E0	1.540572497E1
1.941580977E1	-4.730915070E0	1.504608059E1	-1.192774415E0	1.581735785E1
1.943413560E1	-3.726813078E0	1.609497070E1	-2.206505537E0	1.666750984E1
1.945248706E1	-1.378088474E0	1.620024109E1	-2.004819870E0	1.638188762E1
1.947082570E1	7.447868586E-2	1.347874451E1	-6.807062626E-1	1.349612765E1
1.948915154E1	-1.493638158E-1	8.141382217E0	-7.912595868E-1	8.181106630E0
1.950750300E1	-1.038876534E0	1.931265831E0	-2.198171377E0	3.104997515E0
1.952584164E1	-1.047174931E0	-3.177611351E0	-2.877842903E0	4.413135961E0
1.954416748E1	5.328463316E-1	-5.486052513E0	-1.901195407E0	5.830543831E0
1.956251893E1	2.228486300E0	-6.524557114E0	7.991039753E-1	6.940789860E0
1.958085758E1	2.395073175E0	-8.022363663E0	2.983020782E0	8.887806661E0
1.959918341E1	6.459069252E-1	-9.648406029E0	2.565029621E0	1.000441461E1
1.961753487E1	-1.105758190E0	-1.111652088E1	1.161560535E0	1.123160543E1
1.963587352E1	-2.444861174E0	-1.198495865E1	-7.744524479E-1	1.225627825E1
1.965419935E1	-2.223169804E0	-1.147977257E1	-2.865527153E0	1.203905761E1
1.967255081E1	-1.355639458E0	-9.576197624E0	-2.919380665E0	1.010267800E1
1.969088945E1	-7.585952282E-1	-8.663112640E0	-1.743269920E0	8.869271523E0
1.970922810E1	-1.976175904E-1	-7.866001606E0	-1.353939533E0	7.984120881E0
1.972756674E1	1.736968756E-1	-8.164427757E0	-1.220695019E0	8.257005967E0
1.974590534E1	8.714997768E-2	-9.413632393E0	-1.497965574E0	9.532469292E0
1.976424398E1	-5.559587479E-2	-1.009665585E1	-1.976301908E0	1.028840704E1
1.978258263E1	-2.116407156E-1	-1.096408367E1	-8.507645726E-1	1.099907828E1
1.980092128E1	-3.346823454E-1	-1.106847572E1	6.667451262E-1	1.109358897E1
1.981925992E1	-1.146300733E-1	-1.025949287E1	1.142921567E0	1.032359452E1
1.983759857E1	-1.400278062E-1	-8.780022621E0	-9.579629302E-1	8.833238251E0
1.985593721E1	-1.329450160E-1	-6.991519451E0	-1.719174623E0	7.201012429E0
1.987426310E1	1.899368763E-1	-4.377002716E0	1.132460237E0	4.525118228E0
1.989261451E1	-8.741565943E-1	-1.804256439E-1	2.526593447E0	2.679622662E0
1.991095315E1	-2.708047390E0	6.317252159E0	-1.239012241E0	6.984006504E0
1.992927898E1	-3.950058937E0	1.299931908E1	-4.849061489E0	1.442562510E1
1.994763044E1	-1.858944058E0	1.780762291E1	-2.114557624E-1	1.790563655E1
1.996596909E1	1.175715804E0	2.209154129E1	4.646121502E0	2.260541858E1
1.998429492E1	2.385786533E0	2.237434959E1	4.560682774E0	2.295873090E1
2.000264633E1	3.909183145E-1	2.019326401E1	1.440009475E0	2.024831735E1
2.002098498E1	-3.581666708E0	1.626010132E1	-1.541218758E-1	1.665061515E1
2.003931086E1	-5.402889252E0	1.389100933E1	-2.062457800E0	1.504676326E1
2.005766227E1	-4.429240227E0	1.261566162E1	-1.504399180E0	1.345497321E1
2.007600091E1	-2.790604591E0	1.061247349E1	-1.624819279E0	1.109288534E1
2.009432674E1	-1.405375838E0	9.849611282E0	-2.921201468E0	1.036934625E1
2.011267815E1	-1.127656817E0	7.580051422E0	-2.978437424E0	8.221914555E0
2.013101680E1	-1.162756443E0	3.599485397E0	-2.604878426E0	4.592786658E0
2.014934268E1	-7.588215470E-1	-1.108767509E0	-1.556347609E0	2.056062599E0
2.016769409E1	-1.032740548E-1	-5.998133659E0	-4.563461542E-1	6.016354772E0
2.018603274E1	1.149878979E0	-8.745532990E0	-9.546808004E-1	8.872315615E0
2.020435857E1	1.465061188E0	-1.028547859E1	-7.055087090E-1	1.041322317E1
2.022270998E1	8.531571627E-1	-1.196089745E1	2.845926881E-1	1.199466289E1
2.024104862E1	-3.072825074E-1	-1.276389694E1	3.489600420E-1	1.277236316E1
2.025937451E1	-1.536047935E0	-1.253403568E1	-7.266182303E-1	1.264869431E1
2.027772591E1	-2.226944685E0	-1.130936623E1	-2.169301271E0	1.172889232E1
2.029606456E1	-1.978494406E0	-9.350775719E0	-2.435670614E0	9.863262036E0
2.031439039E1	-1.640941858E0	-8.137326241E0	-6.867144108E-1	8.329486491E0
2.033274180E1	-1.401577711E0	-8.016798973E0	9.935012460E-1	8.198812754E0
2.035108044E1	-1.383855581E0	-8.840815544E0	1.136588812E0	9.020360851E0
2.036941909E1	-1.496168613E0	-1.008869457E1	-3.399087191E-1	1.020469581E1
2.038775774E1	-1.493148088E0	-1.072501850E1	-2.053938866E0	1.102153247E1
2.040609633E1	-1.256031036E0	-1.065328217E1	-2.435857296E0	1.100015616E1
2.042443498E1	-7.700998783E-1	-9.442036629E0	-1.546932578E0	9.598859824E0
2.044277362E1	2.152064443E-1	-8.359934807E0	1.167825103E0	8.443852158E0
2.046111227E1	1.245457411E0	-7.141159058E0	2.704643250E0	7.737080325E0
2.047943810E1	1.926467538E0	-4.428824902E0	1.250085592E0	4.988835653E0
2.049778951E1	1.515108824E0	-5.933570862E-2	-4.223129749E-1	1.573983393E0
2.051612815E1	-1.114177108E-1	4.357725143E0	-8.354926705E-1	4.438494152E0
2.053445399E1	-1.708300948E0	1.019389248E1	-1.266303658E0	1.041332132E1
2.055280539E1	-6.320708990E-1	1.552288532E1	-1.051692009E0	1.557130497E1
2.057114404E1	1.791537762E0	1.829689026E1	1.304562926E0	1.843061814E1
2.058946987E1	1.598960280E0	1.765034103E1	2.878719807E0	1.795489461E1
2.060782128E1	3.584921360E-3	1.630969429E1	2.539805412E0	1.650626403E1
2.062615992E1	-2.041737318E0	1.560259247E1	6.602725983E-1	1.574946167E1
2.064448576E1	-2.490803957E0	1.590783024E1	-5.012829304E-1	1.610945225E1
2.066283721E1	-1.575186491E0	1.616201782E1	-1.765899420E0	1.633433296E1
2.068117581E1	-1.038703561E0	1.573665333E1	-3.008281231E0	1.605524584E1
2.069950164E1	-1.635716915E0	1.335113621E1	-4.312566280E0	1.412538976E1
2.071785305E1	-1.989100218E0	9.690384865E0	-4.214044571E0	1.075259272E1
2.073619169E1	-1.676794887E0	5.977226257E0	-2.343190193E0	6.635466457E0
2.075451758E1	-8.925424218E-1	1.479468346E0	-3.798167706E-1	1.769101280E0
2.077286899E1	-2.298282981E-1	-3.384706020E0	4.486025572E-1	3.422031582E0
2.079120758E1	6.391188502E-2	-8.091938019E0	4.546471834E-1	8.104952171E0
2.080953341E1	1.938100606E-1	-1.156159210E1	6.328177452E-2	1.156338959E1
2.082788482E1	4.832888842E-1	-1.280554008E1	-2.577027380E-1	1.281724759E1
2.084622346E1	2.405410856E-1	-1.307401276E1	3.330334425E-1	1.308046562E1
2.086456211E1	1.019855067E-1	-1.312277222E1	8.837710619E-1	1.315289333E1
2.088290070E1	-6.427827477E-1	-1.193180752E1	-9.355542660E-1	1.198567737E1
2.090123935E1	-1.042981267E0	-1.044539928E1	-2.952792645E0	1.090473111E1
2.091956518E1	-7.455685139E-1	-8.443951607E0	-3.195804834E0	9.059214077E0
2.093791659E1	-2.247091979E-1	-8.217947960E0	-1.136597157E0	8.299217794E0
2.095625524E1	1.266036630E-1	-8.970245361E0	1.430391788E0	9.084456560E0
2.097458107E1	3.407658339E-1	-1.005759048E1	2.305913925E0	1.032417003E1
2.099293248E1	3.984197974E-3	-1.068219852E1	1.890000105E-1	1.068387112E1
2.101127112E1	-4.378209114E-1	-1.081743145E1	-2.762208939E0	1.117310649E1
2.102960971E1	-4.739782214E-1	-1.078904247E1	-3.106621742E0	1.123740146E1
2.104794836E1	1.269808412E-1	-9.808290482E0	-2.239361286E0	1.006148226E1
2.106628695E1	7.808838487E-1	-8.500660896E0	-1.074556947E0	8.603818216E0
2.108461284E1	1.000659585E0	-6.774496555E0	-8.165507317E-1	6.896512037E0
2.110296425E1	5.422050357E-1	-5.390830517E0	-2.937868834E-1	5.425988453E0
2.112130284E1	2.769148648E-1	-2.872879505E0	4.227260351E-1	2.916987452E0
2.113962867E1	-2.915978730E-1	3.921718597E-1	7.744586468E-1	9.157588562E-1
2.115798008E1	-1.504380941E0	5.217601776E0	-1.428940415E0	5.615015674E0
2.117631872E1	-1.943652153E0	1.108102417E1	-1.063717246E0	1.130037056E1
2.119464456E1	-1.848932385E0	1.533362103E1	2.359615803E0	1.562390065E1
2.121299596E1	-8.458999991E-1	1.862645912E1	4.935338020E0	1.928777042E1
2.123133456E1	1.274845362E0	2.054120445E1	4.580689430E0	2.108433131E1
2.124966044E1	1.980981946E0	2.173614502E1	3.391287804E0	2.208812176E1
2.126801180E1	6.732181907E-1	2.294777679E1	5.152547359E0	2.352875744E1
2.128635044E1	-3.602501154E-1	2.341505623E1	5.209807396E0	2.399034663E1
2.130467628E1	-1.298128963E0	2.075668716E1	3.473270178E0	2.108527464E1
2.132302768E1	-1.954594612E0	1.592879200E1	-8.070147038E-2	1.604846932E1
2.134136633E1	-2.593508959E0	9.853940010E0	-3.182265282E0	1.067488804E1
2.135969216E1	-2.895687342E0	3.605291367E0	-4.675289154E0	6.575823879E0
2.137804357E1	-2.376842976E0	-1.306175232E0	-4.681643009E0	5.410476646E0
2.139638216E1	-8.203490376E-1	-4.198330402E0	-2.425393105E0	4.917467074E0
2.141470800E1	4.371110797E-1	-6.043705940E0	7.821387053E-2	6.059997112E0
2.143305940E1	8.448119760E-1	-8.813951492E0	2.625959635E0	9.235535295E0
2.145139805E1	2.910068631E-1	-1.146999550E1	2.947046041E0	1.184612013E1
2.146972388E1	-7.657448649E-1	-1.315774155E1	1.749148965E0	1.329556505E1
2.148807524E1	-1.340401292E0	-1.343732452E1	2.507466078E-2	1.350403624E1
2.150641388E1	-1.359656453E0	-1.279355717E1	-1.866561294E0	1.300030083E1
2.152473971E1	-1.335692167E0	-1.158317375E1	-3.385997295E0	1.214162120E1
2.154309112E1	-1.386636019E0	-1.077797794E1	-3.234346628E0	1.133792601E1
2.156142971E1	-1.144429207E0	-1.039853764E1	-1.875015616E0	1.062802836E1
2.157975555E1	-4.798591733E-1	-1.068091774E1	-2.978142798E-1	1.069583853E1
2.159810695E1	3.861880302E-2	-1.074002743E1	3.101720810E-1	1.074457478E1
2.161644560E1	1.191496849E-1	-1.036124039E1	1.877367496E-2	1.036194246E1
2.163477143E1	-1.089746356E-1	-9.829138756E0	-1.849411130E0	1.000220804E1
2.165312284E1	-7.080157995E-1	-9.822916031E0	-2.932093382E0	1.027560885E1
2.167146143E1	-7.744702101E-1	-8.891197205E0	-2.099585295E0	9.168503163E0
2.168978727E1	-1.730408669E-1	-7.552524090E0	2.847063541E-1	7.559869111E0
2.170813867E1	7.115677595E-1	-5.816978455E0	1.984878898E0	6.187350908E0
2.172647727E1	3.430707455E-1	-4.541337490E0	1.751816392E0	4.879580351E0
2.174480310E1	-1.260898709E-1	-2.950704098E0	2.892086029E0	4.133607979E0
2.176315451E1	-7.096880674E-1	4.547052383E-1	2.799750328E0	2.923870022E0
2.178149310E1	-1.985764861E0	4.489582062E0	-3.435010910E-1	4.921138300E0
2.179981893E1	-3.458127499E0	9.942203522E0	-3.071882725E0	1.096551504E1
2.181817034E1	-3.417969465E0	1.621479797E1	-1.329936981E0	1.662440739E1
2.183650899E1	-1.160031199E0	2.015571976E1	2.358407259E0	2.032635718E1
2.185483482E1	2.046370983E0	2.063613701E1	4.632994652E0	2.124858641E1
2.187318617E1	3.925252914E0	2.032690811E1	3.464091301E0	2.099025327E1
2.189152482E1	4.580745995E-1	1.997802734E1	1.491492391E0	2.003886121E1
2.190985065E1	-3.462064266E0	2.009443665E1	-1.618970871E0	2.045466548E1
2.192820201E1	-3.945651054E0	1.820951462E1	-1.860035896E0	1.872469809E1
2.194654065E1	-2.375901699E0	1.488047123E1	-1.264988184E0	1.512195516E1
2.196486648E1	-1.509610772E0	1.176654339E1	-2.223526239E0	1.206957070E1
2.198321784E1	-1.668460250E0	6.078726768E0	-1.339010119E0	6.444193265E0
2.200155649E1	-1.567270994E0	7.035417557E-1	-6.217817664E-1	1.826998067E0
2.201988232E1	-1.153740764E0	-4.147300720E0	8.598793149E-1	4.389830686E0
2.203823367E1	1.274943352E-4	-8.248066902E0	2.000158072E0	8.487122006E0
2.205657232E1	1.028990984E0	-9.771608353E0	2.104460001E0	1.004847770E1
2.207489815E1	5.657266378E-1	-1.115333939E1	2.655581951E0	1.147907407E1
2.209324951E1	-8.813945055E-1	-1.308241749E1	1.928804398E0	1.325318037E1
2.211158815E1	-1.707283139E0	-1.408988953E1	-8.679370880E-1	1.421946263E1
2.212991398E1	-1.949430108E0	-1.341557026E1	-4.166592598E0	1.418232340E1
2.214826539E1	-1.365494967E0	-1.133012390E1	-5.670870304E0	1.274343180E1
2.216660399E1	-4.577676058E-1	-9.687169075E0	-3.929871082E0	1.046397069E1
2.218492982E1	2.250924110E-1	-9.153112411E0	-1.461390734E0	9.271774172E0
2.220328122E1	1.523250341E-1	-9.325972557E0	-5.816926360E-1	9.345337521E0
2.222161982E1	-3.011017442E-1	-1.016230869E1	-1.318616748E0	1.025192325E1
2.223995841E1	-4.991329014E-1	-1.010264874E1	-2.520293474E0	1.042422776E1
2.225829701E1	-3.516590595E-1	-9.702292442E0	-2.177700758E0	9.949900669E0
2.227663565E1	-1.217882037E-1	-9.251472473E0	-1.203727126E0	9.330248351E0
2.229496148E1	-5.005538464E-3	-8.781338692E0	-3.717117310E-1	8.789203825E0
2.231331284E1	-3.743302822E-1	-8.759737015E0	-5.857613087E-1	8.787276713E0
2.233165149E1	-5.828540325E-1	-7.540846825E0	-1.640787482E0	7.739268261E0
2.234997732E1	-4.067748785E-2	-5.548974991E0	2.018245459E-1	5.552793104E0
2.236832867E1	8.967845440E-1	-2.823751450E0	4.314124107E0	5.233494204E0
2.238666727E1	6.579606533E-1	9.835052490E-2	5.771086216E0	5.809304705E0
2.240499310E1	-1.804479837E0	4.117492676E0	1.084880590E0	4.624592881E0
2.242334451E1	-4.980590343E0	8.064071655E0	-3.452451229E0	1.008736593E1
2.244168310E1	-4.576828480E0	1.273976612E1	-1.717358828E0	1.364545056E1
2.246000893E1	-1.460623384E0	1.623437309E1	2.947715759E0	1.656433876E1
2.247836034E1	5.177482367E-1	1.934701157E1	3.399999619E0	1.965031596E1
2.249669893E1	2.488562018E-1	2.018558693E1	3.289779663E0	2.045342268E1
2.251502477E1	-1.077728152E0	1.943143082E1	4.797457695E0	2.004389188E1
2.253337617E1	-2.687777519E0	1.859808731E1	5.104137897E0	1.947216535E1
2.255171477E1	-2.177690744E0	1.720238495E1	2.829601049E0	1.756903603E1
2.257004060E1	-1.048620224E0	1.606459808E1	-4.591230154E-1	1.610533172E1
2.258839201E1	-4.554177225E-1	1.374604416E1	-2.680365086E0	1.401233358E1
2.260673060E1	-5.696998835E-1	9.895426750E0	-3.515984774E0	1.051694715E1
2.262505643E1	-1.019746065E0	5.463820457E0	-3.551092148E0	6.595716145E0
2.264340784E1	-1.186711669E0	2.625741959E-1	-2.211997271E0	2.523917930E0
2.266174643E1	-8.372730017E-1	-4.739377975E0	-1.052730918E0	4.926557831E0
2.268007227E1	3.575810194E-1	-7.964952469E0	3.465472460E-1	7.980502930E0
2.269842367E1	7.942634225E-1	-1.071821976E1	2.135698318E0	1.095775052E1
2.271676227E1	-4.476270080E-2	-1.237006187E1	1.476203084E0	1.245791355E1
2.273508810E1	-1.113943815E0	-1.252487469E1	-7.771812081E-1	1.259830812E1
2.275343945E1	-1.614828825E0	-1.205879784E1	-2.420627117E0	1.240490681E1
2.277177810E1	-1.418350935E0	-1.063272858E1	-3.877244473E0	1.140612384E1
2.279011669E1	-9.864360690E-1	-9.305205345E0	-2.795896530E0	9.766111818E0
2.280845529E1	-7.033522129E-1	-8.837274551E0	-1.491656780E0	8.989836805E0
2.282679393E1	-2.824527323E-1	-9.054825783E0	-4.924396873E-1	9.072604166E0
2.284513253E1	3.268392086E-1	-9.844600677E0	2.241483331E-1	9.852574732E0
2.286347112E1	5.673692822E-1	-9.818791389E0	-7.643913627E-1	9.864829771E0
2.288180971E1	5.097630620E-1	-1.007201767E1	-1.563408375E0	1.020537329E1
2.290014836E1	2.469738126E-1	-9.611018181E0	-1.851145625E0	9.790781719E0
2.291848695E1	9.780520201E-2	-8.750713348E0	-1.527869344E0	8.883632967E0
2.293682555E1	-1.053770781E-1	-7.428141594E0	-1.537860751E0	7.586396217E0
2.295515138E1	3.935532570E-1	-5.960821152E0	4.296205044E-1	5.989227558E0
2.297350279E1	7.032017708E-1	-5.492736340E0	4.206377983E0	6.954010423E0
2.299184138E1	7.537289262E-1	-4.340715885E0	6.162539005E0	7.575408153E0
2.301016721E1	4.682306349E-1	-1.038781166E0	3.660755157E0	3.833984163E0
2.302851862E1	-1.120835304E0	3.374153137E0	-2.500211716E0	4.346520424E0
2.304685721E1	-2.238842726E0	5.626886368E0	-3.144557953E0	6.823672887E0
2.306518305E1	-1.607415080E0	9.012800217E0	-1.440424442E0	9.267641208E0
2.308353445E1	-5.944991112E-1	1.227097988E1	-3.719195724E-1	1.229100080E1
2.310187305E1	-2.046351135E-1	1.417848301E1	-2.201711178E0	1.434987066E1
2.312021164E1	-2.128475308E-1	1.230649281E1	-1.952016830E0	1.246216028E1
2.313855029E1	-5.008209944E-1	8.483449936E0	1.539783597E0	8.636589489E0
2.315688888E1	-2.983672857E0	8.203670502E0	2.071318626E0	8.971782112E0
2.317521471E1	-5.131752491E0	1.182782173E1	1.993027031E-1	1.289464897E1
2.319356612E1	-4.110633850E0	1.569858456E1	-7.506268024E-1	1.624519339E1
2.321190471E1	-2.019351959E0	1.734286499E1	-1.043293953E0	1.749117522E1
2.323023055E1	-1.288829327E0	1.600256348E1	-2.041159153E0	1.618361670E1
2.324858195E1	-1.777890444E0	1.182559776E1	-3.483049870E0	1.245541221E1
2.326692055E1	-2.598539114E0	6.211774826E0	-4.488699913E0	8.092402543E0
2.328524638E1	-2.727660418E0	1.701432228E0	-4.587405205E0	5.601722011E0
2.330359779E1	-1.695451021E0	-1.103383064E0	-1.951713443E0	2.810906209E0
2.332193638E1	-4.125221372E-1	-4.290476799E0	1.947663784E0	4.729879480E0
2.334026221E1	1.934519112E-1	-7.179102898E0	3.829011440E0	8.138689739E0
2.335861362E1	3.516397774E-1	-1.001431561E1	3.827805042E0	1.072670774E1
2.337695221E1	2.361764610E-1	-1.206700325E1	2.215335608E0	1.227094367E1
2.339527805E1	-2.113652229E-2	-1.228122044E1	1.915324926E-1	1.228273206E1
2.341362945E1	-5.044229627E-1	-1.177352810E1	-1.138108015E0	1.183915944E1
2.343196805E1	-7.119510770E-1	-1.072336960E1	-1.626412868E0	1.086934905E1
2.345029388E1	-8.953559995E-1	-9.319358826E0	-2.166354656E0	9.609641189E0
2.346864529E1	-9.925639629E-1	-8.299367905E0	-2.343897343E0	8.680929996E0
2.348698388E1	-7.049944401E-1	-7.669395924E0	-1.944532633E0	7.943416025E0
2.350532248E1	-4.576769471E-1	-8.006361008E0	-1.106223822E0	8.095370030E0
2.352366112E1	-3.533152342E-1	-9.050941467E0	2.954553366E-1	9.062652313E0
2.354199971E1	-2.946116328E-1	-9.937355042E0	4.974689484E-1	9.954159763E0
2.356032555E1	-3.210041523E-1	-9.376005173E0	-1.564812779E0	9.511106965E0
2.357867695E1	-1.602033377E-1	-7.830706596E0	-2.911809921E0	8.356091666E0
2.359701555E1	1.144034266E-1	-6.848071098E0	-1.761979103E0	7.072039046E0
2.361534138E1	5.399055481E-1	-6.650818348E0	1.245651722E0	6.787969572E0
2.363369279E1	1.053878784E0	-5.895197868E0	3.053119659E0	6.722020385E0
2.365203138E1	1.545531511E0	-2.586153030E0	3.702230453E-1	3.035443996E0
2.367035721E1	-7.726178169E-1	1.416535378E0	-3.137591362E0	3.528170960E0
2.368870862E1	-3.235620975E0	4.816118240E0	-3.039747477E0	6.550137611E0
2.370704721E1	-3.397121191E0	1.050088310E1	-1.268899798E0	1.110941425E1
2.372537305E1	-8.341919184E-1	1.634575653E1	-5.933621526E-1	1.637778103E1
2.374372445E1	1.242471337E0	1.978324890E1	6.575980783E-1	1.983313156E1
2.376206305E1	1.386930943E0	1.963171768E1	2.540483952E0	1.984394052E1
2.378038893E1	-1.388532639E0	1.730707932E1	1.971914768E0	1.747430872E1
2.379874029E1	-5.450950146E0	1.640335464E1	-2.389968634E-1	1.728698992E1
2.381707893E1	-5.291298389E0	1.654728127E1	1.466594934E-1	1.737330898E1
2.383541753E1	-2.997207880E0	1.645082855E1	1.467851400E0	1.678593467E1
2.385375612E1	-1.959697008E0	1.368857288E1	1.277529001E0	1.388702705E1
2.387209477E1	-2.363989353E0	9.438220978E0	-1.202069283E0	9.803745787E0
2.389042060E1	-2.625712872E0	4.911330223E0	-2.658782721E0	6.171276869E0
2.390877195E1	-1.441383958E0	9.505767822E-1	-2.473209858E0	3.016280977E0
2.392711060E1	6.740844995E-2	-2.546880722E0	-5.959947705E-1	2.616554046E0
2.394543643E1	1.762217879E0	-5.814570427E0	1.681307077E0	6.304080789E0
2.396378784E1	2.377358198E0	-8.779603958E0	3.937788010E0	9.911581714E0
2.398212643E1	1.460048914E0	-1.113375568E1	1.899996877E0	1.138868942E1
2.400045227E1	2.200273722E-1	-1.235846996E1	-9.683746099E-1	1.239830397E1
2.401880367E1	-7.499176264E-1	-1.302437115E1	-1.682060003E0	1.315393272E1
2.403714227E1	-1.654889107E0	-1.280026531E1	-2.240394115E0	1.309980213E1
2.405548091E1	-2.052747011E0	-1.185359859E1	-2.705923557E0	1.233059578E1
2.407381951E1	-2.031176805E0	-1.072638988E1	-2.587001562E0	1.121934473E1
2.409215810E1	-1.626472473E0	-9.461828232E0	-2.598821402E0	9.946128838E0
2.411048399E1	-6.861835122E-1	-8.239786148E0	-1.353561640E0	8.378368140E0
2.412883534E1	-4.544287920E-2	-7.909266472E0	2.015558481E-1	7.911964733E0
2.414717399E1	-1.601692736E-1	-8.233567238E0	8.808958530E-2	8.235596119E0
2.416551258E1	-2.790283263E-1	-8.426400185E0	-5.564118624E-1	8.449359209E0
2.418385117E1	-1.872205734E-1	-8.826056480E0	-1.272090316E0	8.919222966E0
2.420218982E1	2.179170847E-1	-8.545046806E0	-1.398934007E0	8.661543115E0
2.422051565E1	5.229125023E-1	-7.872878075E0	1.204183102E-1	7.891143595E0
2.423886706E1	7.439792156E-1	-7.176839828E0	1.349972129E0	7.340501328E0
2.425720565E1	9.896899462E-1	-4.971889496E0	7.607194185E-1	5.126194045E0
2.427553149E1	6.596628428E-1	-3.186349869E-1	-9.729973078E-1	1.217952003E0
2.429388289E1	-1.190440059E0	3.220252037E0	3.912720084E-1	3.455468782E0
2.431222149E1	-2.283735275E0	7.761160851E0	1.030790567E0	8.155586659E0
2.433054737E1	-4.268483818E-2	1.484858894E1	-3.001365662E-1	1.485168332E1
2.434889872E1	1.991432905E0	2.272283554E1	2.143497467E-1	2.281094049E1
2.436723737E1	6.436369419E-1	2.265510559E1	1.000186205E0	2.268630535E1
2.438556320E1	-2.057311535E0	2.018294525E1	-4.331478477E-1	2.029215185E1
2.440391461E1	-4.082855225E0	1.682156754E1	-1.876197308E-1	1.731098040E1
2.442225320E1	-6.302969456E0	1.267422104E1	4.337646365E-1	1.416161907E1
2.444057904E1	-6.827923298E0	8.716725349E0	3.232967854E-2	1.107261860E1
2.445893044E1	-4.610105991E0	6.600285530E0	1.537806392E-1	8.052359581E0
2.447726904E1	-8.857225180E-1	4.797229767E0	-1.700407267E-2	4.878340594E0
2.449559487E1	1.459375620E0	3.852433205E0	-1.654569983E0	4.439439224E0
2.451394628E1	1.890325546E0	1.329426765E0	-2.228821516E0	3.210662166E0
2.453228492E1	1.583267212E0	-1.507315636E0	-1.231245518E0	2.508924274E0
2.455061076E1	1.204887867E0	-3.967066765E0	9.642671347E-1	4.256663552E0
2.456896216E1	1.174961090E0	-6.830759048E0	3.171865225E0	7.622370481E0
2.458730076E1	7.620908618E-1	-8.978149414E0	2.351601839E0	9.312248955E0
2.460562659E1	-4.666864276E-1	-1.026662350E1	-6.315314770E-2	1.027741906E1
2.462397800E1	-1.278833508E0	-1.109377098E1	-1.364733696E0	1.125031856E1
2.464231659E1	-1.462954760E0	-1.063607407E1	-2.209105968E0	1.096113394E1
2.466065524E1	-8.845582008E-1	-9.906152725E0	-1.589854479E0	1.007183907E1
2.467899383E1	-4.087909758E-1	-9.362234116E0	-1.356935740E0	9.468886540E0
2.469733248E1	-5.518914461E-1	-9.593091965E0	-1.095997095E0	9.671256756E0
2.471567107E1	-1.158840656E0	-1.046619606E1	-6.846216917E-1	1.055238734E1
2.473400966E1	-1.319580793E0	-1.129205894E1	-4.315279722E-1	1.137708684E1
2.475234831E1	-1.046282768E0	-1.125532341E1	-4.784486592E-1	1.131397038E1
2.477067414E1	-3.502383530E-1	-9.437892914E0	-1.207321644E0	9.521245460E0
2.478902555E1	-4.590463638E-2	-8.336065292E0	-8.416429162E-1	8.378571155E0
2.480736414E1	-1.849178076E-1	-7.811813831E0	-4.583305418E-1	7.827432326E0
2.482568998E1	1.542490721E-1	-7.071619987E0	4.795613885E-1	7.089540264E0
2.484404138E1	5.806618929E-1	-5.005947113E0	6.593917012E-1	5.082467132E0
2.486238003E1	1.380872726E-2	-6.315526962E-1	-1.508191466E0	1.635142498E0
2.488070586E1	-1.833321095E0	4.070360184E0	-2.400744438E0	5.068774222E0
2.489905721E1	-2.483396769E0	9.722477913E0	-1.961330175E0	1.022451233E1
2.491739586E1	2.804820538E-1	1.660504150E1	-4.528600276E-1	1.661358347E1
2.493572169E1	2.559796572E0	2.058930779E1	2.053568125E0	2.084920372E1
2.495407310E1	2.213505983E0	1.854848480E1	2.924112558E0	1.890757339E1
2.497241169E1	-9.682004154E-2	1.499665070E1	1.657180905E0	1.508824558E1
2.499073758E1	-2.685587406E0	1.348008919E1	6.271998286E-1	1.375930826E1
2.500908893E1	-3.383615732E0	1.370570374E1	1.044522524E0	1.415578319E1
2.502742758E1	-1.983745098E0	1.454795361E1	8.219659328E-3	1.468258377E1
2.504575341E1	-1.074669003E0	1.447643471E1	-1.788324594E0	1.462601040E1
2.506410482E1	-1.544920921E0	1.265666676E1	-3.663940907E0	1.326659176E1
2.508244341E1	-2.607536316E0	8.316359520E0	-3.800882816E0	9.508301188E0
2.510076925E1	-3.659342289E0	2.921887398E0	-3.579235315E0	5.893991635E0
2.511912065E1	-3.525899649E0	-2.251327038E0	-2.550832033E0	4.899712831E0
2.513745930E1	-2.232517481E0	-4.734436989E0	-1.103700876E0	5.349503110E0
2.515578513E1	-4.010807276E-1	-5.880158901E0	1.341461182E0	6.044555613E0
2.517413654E1	1.207541823E0	-7.418062210E0	3.837656975E0	8.438804137E0
2.519247513E1	1.598225355E0	-8.773946762E0	4.271023750E0	9.888281445E0
2.521080096E1	6.478629112E-1	-9.927783966E0	2.383949041E0	1.023053439E1
2.522915237E1	-9.894563556E-1	-1.055781841E1	-7.059906721E-1	1.062755740E1
2.524749102E1	-2.168626070E0	-1.119258404E1	-1.692332983E0	1.152566126E1
2.526582961E1	-2.030984402E0	-1.027717781E1	-1.237999558E0	1.054883521E1
2.528416826E1	-1.601871371E0	-8.507229805E0	-1.057036281E0	8.721024971E0
2.530250685E1	-1.274383664E0	-6.921182632E0	-2.105575562E0	7.345765529E0
2.532084550E1	-1.129252672E0	-6.815437317E0	-2.580908537E0	7.374719404E0
2.533918409E1	-1.204726934E0	-8.252843857E0	-1.730878592E0	8.518024384E0
2.535752274E1	-1.102699399E0	-9.646829605E0	-7.080197334E-3	9.709650742E0
2.537586133E1	-8.340291977E-1	-1.025687027E1	4.659873247E-1	1.030126869E1
2.539419998E1	-6.106110215E-1	-8.763737679E0	-2.447999239E0	9.119684435E0
2.541253857E1	-1.482653618E-2	-6.706812859E0	-2.755231619E0	7.250714435E0
2.543086440E1	8.039969206E-1	-5.742358208E0	1.841295600E0	6.083704326E0
2.544921581E1	1.250265360E0	-4.757101059E0	5.094893456E0	7.081745073E0
2.546755440E1	1.620241404E0	-2.463117123E0	3.621445656E0	4.669796227E0
2.548588029E1	-4.900768399E-1	1.962182999E0	-2.304966688E0	3.066465207E0
2.550423164E1	-3.082529783E0	4.190786362E0	-3.393168926E0	6.211141244E0
2.552257029E1	-3.927094460E0	8.180368423E0	-3.179701090E0	9.615144173E0
2.554089612E1	-1.521126151E0	1.178979397E1	-1.536335588E0	1.198638368E1
2.555924753E1	7.795172334E-1	1.609520340E1	-1.604148626E0	1.619371830E1
2.557758617E1	1.860490322E0	1.596273899E1	7.057299614E-1	1.608628345E1
2.559591201E1	4.099124074E-1	1.411421680E1	1.778377056E0	1.423171701E1
2.561426341E1	-3.839913845E0	1.268799877E1	-7.571744919E-1	1.327793525E1
2.563260201E1	-5.854875565E0	1.176827240E1	-3.918773174E0	1.371599746E1
2.565092784E1	-4.476647377E0	1.315119171E1	-5.649399757E0	1.499699746E1
2.566927925E1	-1.438950539E0	1.308367348E1	-4.606148243E0	1.394523904E1
2.568761789E1	-4.022806883E-1	9.897811890E0	-3.871947289E0	1.063581148E1
2.570594372E1	-4.934255481E-1	3.648335457E0	-3.403089762E0	5.013465897E0
2.572429513E1	2.892329693E-1	2.188649178E0	-5.875535965E0	6.276604481E0
2.574263372E1	3.647923470E-1	-4.373226166E-1	-5.202609539E0	5.233686133E0
2.576095956E1	-2.301168591E-1	-3.615791321E0	-2.363847733E0	4.326046318E0
2.577931096E1	2.259379774E-1	-7.429403305E0	3.051990747E0	8.035031360E0
2.579764956E1	7.494012713E-1	-8.993656158E0	2.129861593E0	9.272743055E0
2.581597544E1	1.542106986E0	-7.058509827E0	-3.333960533E0	7.957131881E0
2.583432680E1	9.650435299E-2	-8.348112106E0	-3.142184973E0	8.920404432E0
2.585266544E1	-4.560057223E-1	-8.509707451E0	-1.531861901E0	8.658502353E0
2.587100404E1	-8.090991974E-1	-7.640316486E0	-1.946275234E0	7.925721722E0
2.588934268E1	-7.956306934E-1	-7.621954918E0	-3.645780563E0	8.486397403E0
2.590768128E1	4.444862008E-1	-6.058109760E0	-5.499842644E0	8.194298686E0
2.592600716E1	3.268226981E-1	-6.429447174E0	-2.382225990E0	6.864372128E0
2.594435852E1	-7.755189538E-1	-8.213800430E0	1.016673326E0	8.312735519E0
2.596269716E1	-1.059178948E0	-8.768526077E0	3.996083736E-1	8.841300609E0
2.598102300E1	-5.158262849E-1	-8.380545616E0	-2.345627069E0	8.717888961E0
2.599937440E1	-8.453851938E-2	-6.166444778E0	-2.145943880E0	6.529721518E0
2.601771300E1	-5.394341946E-1	-6.495610237E0	7.176969051E-1	6.557364596E0
2.603603883E1	-1.962611675E-1	-6.177363396E0	2.529726982E0	6.678162590E0
2.605439024E1	-1.187127829E-2	-4.755533695E0	1.403791547E0	4.958414299E0
2.607272888E1	2.747258544E-1	-1.232877731E0	-3.217619419E0	3.456665521E0
2.609105471E1	-4.101634026E-3	2.109844208E0	-4.031727791E0	4.550416287E0
2.610940612E1	9.241142273E-1	7.453831673E0	1.591162086E0	7.677590149E0
2.612774471E1	1.222537160E0	9.164035797E0	6.362146854E0	1.122279207E1
2.614607055E1	6.358372569E-1	8.415643692E0	6.400775433E0	1.059232146E1
2.616442195E1	-1.012028217E0	8.719165802E0	3.913573503E0	9.610624900E0
2.618276055E1	-3.233515024E0	1.001713753E1	3.360095978E0	1.104938499E1
2.620108643E1	-3.300445080E0	1.328139496E1	3.755893707E0	1.419137510E1
2.621943779E1	-2.541284561E0	1.613272095E1	3.552563667E0	1.671357296E1
2.623777643E1	-1.324652791E0	1.579693699E1	4.123587132E0	1.637992351E1
2.625610227E1	-1.055195570E0	1.260324287E1	3.125736237E0	1.302786996E1
2.627445367E1	1.928215623E-1	1.011477757E1	1.287668467E0	1.019823492E1
2.629279227E1	1.496435046E0	9.769193649E0	-3.662549973E0	1.053995895E1
2.631111810E1	1.560169697E0	8.235293388E0	-6.267133236E0	1.046571286E1
2.632946951E1	6.453579664E-1	1.867440224E0	-5.930649042E-1	2.062897446E0
2.634780815E1	5.312806368E-1	-2.122846603E0	1.598576307E0	2.710015319E0
2.636613398E1	-7.004654408E-2	-4.419092178E0	-1.870693684E0	4.799247551E0
2.638448534E1	-1.098551512E0	-7.554788589E0	-4.022016048E0	8.628919929E0
2.640282398E1	-2.012078524E0	-9.839653969E0	-3.367185831E0	1.059269515E1
2.642114982E1	-1.654354811E0	-1.071407700E1	-1.797003269E0	1.098897431E1
2.643950122E1	-7.301328182E-1	-1.036910820E1	-2.579674482E0	1.071009894E1
2.645783982E1	-1.319009066E-2	-9.193869591E0	-5.892262459E0	1.091998942E1
2.647617846E1	7.341107726E-1	-7.441893578E0	-6.678750038E0	1.002628549E1
2.649451706E1	6.162861586E-1	-7.723937035E0	-4.381313801E0	8.901400034E0
2.651285565E1	3.907440305E-1	-8.187896729E0	-1.577146411E0	8.347557998E0
2.653119430E1	-3.601477444E-1	-8.682022095E0	-1.664668798E0	8.847504522E0
2.654953289E1	-6.225234270E-1	-8.837959290E0	-3.896852732E0	9.678973139E0
2.656787154E1	-1.162806153E-1	-8.384582520E0	-3.169982433E0	8.964571035E0
2.658621013E1	3.447765112E-2	-8.078429222E0	-1.699251413E0	8.255280902E0
2.660454872E1	-7.450745106E-1	-7.914785862E0	-2.338091850E0	8.286473603E0
2.662288737E1	-1.106665850E0	-7.541802406E0	-4.340345383E0	8.771664088E0
2.664121320E1	-3.775424063E-1	-6.167082787E0	-3.644266844E0	7.173292772E0
2.665956456E1	-1.828920841E-2	-3.227436066E0	-2.318046570E0	3.973665556E0
2.667790320E1	-2.941052318E-1	-6.234159470E-1	5.576968193E-2	6.915602560E-1
2.669622904E1	-5.803099871E-1	1.924076080E-1	4.763872623E-1	7.750646376E-1
2.671458044E1	4.939458370E-1	2.362988472E0	-2.347996235E-1	2.425454158E0
2.673291904E1	1.063142657E0	5.677041054E0	2.111608982E0	6.149630877E0
2.675124487E1	-6.611913443E-1	5.901030540E0	6.011033058E0	8.449370027E0
2.676959628E1	-2.286475182E0	5.576979637E0	5.277530670E0	8.011429373E0
2.678793487E1	-2.320040703E0	9.367796898E0	5.267064571E-1	9.665176008E0
2.680626070E1	-1.210870147E0	1.471468163E1	6.304273605E-1	1.477787199E1
2.682461211E1	-9.335267544E-2	1.740268707E1	5.294835091E0	1.819058852E1
2.684295070E1	7.926689982E-1	1.764328957E1	8.783782959E0	1.972482786E1
2.686128930E1	1.051210880E0	1.664580917E1	7.920927525E0	1.846426549E1
2.687962794E1	1.325193644E0	1.571700191E1	3.041820049E0	1.606340427E1
2.689796654E1	1.486303687E0	1.254175091E1	2.107869387E0	1.280420743E1
2.691629237E1	-5.113595724E-2	7.563439369E0	1.965840816E0	7.814906275E0
2.693464378E1	-1.746980667E0	3.280100822E0	-2.808623314E-1	3.726913804E0
2.695298237E1	-2.552238703E0	-4.743604660E-1	-2.315452099E0	3.478542607E0
2.697130820E1	-1.891840219E0	-3.285503387E0	-2.752181292E0	4.684879271E0
2.698965961E1	-4.811012745E-1	-5.545240879E0	3.599538803E-1	5.577698597E0
2.700799820E1	-1.852161586E-1	-7.693403721E0	2.407419682E-1	7.699397543E0
2.702632404E1	9.679496288E-3	-9.293645859E0	-3.057163239E0	9.783567555E0
2.704467539E1	5.314927101E-1	-9.633696556E0	-7.521296978E0	1.223358092E1
2.706301404E1	1.146529913E0	-8.628327370E0	-7.697514057E0	1.161956482E1
2.708135263E1	9.284457564E-1	-8.452378273E0	-5.190598488E0	9.962279993E0
2.709969122E1	-1.933014989E-1	-9.144750595E0	-5.494479179E0	1.067019823E1
2.711802987E1	-7.580792904E-1	-9.083148003E0	-4.496975899E0	1.016371261E1
2.713635565E1	-2.283973098E-1	-8.731967926E0	-2.804033756E0	9.173986838E0
2.715470706E1	-5.397767425E-1	-8.803227425E0	-1.546365857E0	8.954296141E0
2.717304565E1	-3.599606156E-1	-8.533628464E0	1.021516562E0	8.602085938E0
2.719137148E1	9.331250191E-2	-7.918819427E0	1.673432350E0	8.094243892E0
2.720972289E1	-2.639108300E-1	-8.102877617E0	7.151575089E-1	8.138656207E0
2.722806148E1	-1.171466231E0	-8.782155991E0	-1.903790236E0	9.062174917E0
2.724638732E1	-2.195882797E0	-8.806523323E0	-4.959771633E0	1.034292458E1
2.726473867E1	-1.664602876E0	-7.941154480E0	-1.368869424E0	8.228404506E0
2.728307732E1	-8.520007133E-3	-6.143923759E0	1.971838474E0	6.452597827E0
2.730140315E1	5.602209568E-1	-3.604843616E0	1.166410685E0	3.830046854E0
2.731975451E1	-7.488894463E-1	-1.781601906E0	-1.010548115E0	2.180859520E0
2.733809310E1	-2.070717573E0	5.317115784E-1	-4.461615562E0	4.947383338E0
2.735641893E1	-1.414476275E0	4.949399948E0	-2.377425671E0	5.670049012E0
2.737477034E1	-1.090705633E0	9.309324265E0	1.174541473E0	9.446306406E0
2.739310893E1	4.156565070E-1	1.422736263E1	2.221063852E0	1.440568438E1
2.741143477E1	6.613489389E-1	1.802701759E1	2.787334919E-1	1.804129813E1
2.742978612E1	-4.496979713E-1	1.657597542E1	1.491633415E0	1.664902879E1
2.744812477E1	-2.720244884E0	1.532590103E1	3.974349260E0	1.606481954E1
2.746645055E1	-3.556693316E0	1.710367966E1	7.055917740E0	1.884069798E1
2.748480195E1	-2.324649096E0	1.880583191E1	7.921391487E0	2.053805615E1
2.750314055E1	-8.412987590E-1	1.697787094E1	6.835094452E0	1.832141920E1
2.752146638E1	-8.419793844E-1	1.313880157E1	3.063957214E0	1.351757633E1
2.753981774E1	-2.704719543E0	7.755126953E0	-4.295584559E-1	8.224477025E0
2.755815638E1	-4.877348900E0	2.459273338E0	-2.869743586E0	6.170250067E0
2.757648216E1	-5.035854340E0	-5.004539490E-1	-2.968540430E0	5.867070425E0
2.759483357E1	-3.833173037E0	-1.318948746E0	-1.926147461E0	4.488082593E0
2.761317216E1	-2.062877178E0	-3.296335697E0	4.238219261E-1	3.911638570E0
2.763149800E1	-8.940031528E-1	-5.878382206E0	1.049209833E0	6.037835727E0
2.764984935E1	-5.583845973E-1	-8.313604355E0	6.817835569E-1	8.360181789E0
2.766818800E1	-7.725219131E-1	-1.010356236E1	-8.850864172E-1	1.017163410E1
2.768651383E1	-9.299283028E-1	-1.061921310E1	-2.151061773E0	1.087471932E1
2.770486518E1	-8.341533542E-1	-9.754325867E0	-3.054905891E0	1.025549292E1
2.772320378E1	-1.584179759E0	-9.733885765E0	-3.779211521E0	1.056127820E1
2.774154237E1	-2.386179924E0	-9.941076279E0	-3.476584911E0	1.079840242E1
2.775988096E1	-2.798200130E0	-1.002437115E1	-3.461930752E0	1.096826811E1
2.777821961E1	-2.927244663E0	-9.692893028E0	-3.296717644E0	1.064844044E1
2.779654539E1	-1.675702095E0	-8.673993111E0	-2.127673626E0	9.086975793E0
2.781489680E1	-2.901887894E-1	-7.617717743E0	5.041551590E-2	7.623409662E0
2.783323539E1	3.186980486E-1	-8.161753654E0	2.511868954E0	8.545482830E0
2.785156122E1	-4.089179039E-1	-9.752613068E0	1.006541610E0	9.812940513E0
2.786991258E1	-1.631519675E0	-1.036913776E1	-3.927371025E0	1.120736890E1
2.788825122E1	-8.252723813E-1	-8.730285645E0	-4.201639175E0	9.723822998E0
2.790657701E1	9.045956135E-1	-6.266935349E0	-2.481366396E-1	6.336745512E0
2.792492841E1	1.111543655E0	-5.005185127E0	2.362775803E0	5.645362429E0
2.794326701E1	-7.734358311E-2	-2.296379089E0	4.143738747E-2	2.298054832E0
2.796159284E1	-1.932574987E0	1.517568588E0	-5.697345734E0	6.204644141E0
2.797994419E1	-3.236211538E0	6.405426979E0	-5.146023750E0	8.830861812E0
2.799828279E1	-1.912674546E0	1.410013103E1	9.934682846E-1	1.426390544E1
2.801660862E1	1.820647478E0	2.085295486E1	6.962237835E0	2.205976517E1
2.803496003E1	5.160697937E0	2.331498718E1	7.595270157E0	2.505812362E1
2.805329862E1	5.879966736E0	2.111854172E1	8.619619370E0	2.355556518E1
2.807162445E1	2.328140020E0	1.459700298E1	8.824373245E0	1.721517631E1
2.808997581E1	-2.695021868E0	1.003043652E1	4.384298801E0	1.127363631E1
2.810831440E1	-3.353786707E0	1.057478714E1	1.472120762E0	1.119111915E1
2.812664024E1	-2.620657086E-1	1.252702522E1	1.341913700E0	1.260141943E1
2.814499159E1	1.832755804E0	1.389131355E1	-1.382425427E0	1.407972607E1
2.816333018E1	8.770775795E-1	1.053399563E1	-2.984632969E0	1.098373174E1
2.818165602E1	-1.192669749E0	4.739760399E0	-2.906437397E0	5.686402036E0
2.820000742E1	-2.030001402E0	-1.707172394E-2	-1.782254815E0	2.701412475E0
2.821834602E1	-1.383089304E0	-3.474447250E0	-6.292772293E-2	3.740144331E0
2.823667185E1	2.508332729E-1	-4.722114086E0	6.991488934E-1	4.780176560E0
2.825502320E1	1.236194372E0	-5.766752243E0	1.198762417E0	6.018358521E0
2.827336180E1	3.294956684E-1	-8.299468994E0	9.759783745E-1	8.363150529E0
2.829168763E1	-1.234766960E0	-1.024841309E1	-4.349237680E-1	1.033168810E1
2.831003899E1	-2.019691467E0	-1.069059086E1	-1.576122046E0	1.099327282E1
2.832837758E1	-2.517442226E0	-1.027186775E1	-2.648649216E0	1.090248252E1
2.834671617E1	-2.244184732E0	-9.577479362E0	-2.799743652E0	1.022756279E1
2.836505482E1	-2.177753687E0	-8.167598724E0	-3.164490700E0	9.025867351E0
2.838339341E1	-2.314126015E0	-8.210437775E0	-2.091013193E0	8.782869909E0
2.840173201E1	-2.152519941E0	-8.686761856E0	-1.347541332E0	9.050361390E0
2.842007060E1	-1.841900468E0	-9.130729675E0	-1.228181243E0	9.395278117E0
2.843840919E1	-1.121867895E0	-8.993713379E0	-2.146811724E0	9.314197147E0
2.845674779E1	-1.018721819E0	-9.075704575E0	-2.452162027E0	9.456178207E0
2.847508638E1	-1.435614347E0	-1.010155487E1	-1.483299613E0	1.031031411E1
2.849342498E1	-1.661155701E0	-1.007292557E1	-1.866191983E0	1.037814725E1
2.851176362E1	-1.056478024E0	-8.946287155E0	-1.885746717E0	9.203707968E0
2.853010221E1	6.395517588E-1	-6.521626472E0	-8.155977726E-1	6.603471665E0
2.854844081E1	8.071389198E-1	-4.409859657E0	9.736163616E-1	4.587620762E0
2.856676659E1	-5.258960724E-1	-3.181801796E0	6.342848539E-1	3.286753204E0
2.858511800E1	-1.639171839E0	-1.028818130E0	-2.486809254E0	3.151122233E0
2.860345659E1	-1.007839680E0	3.645689011E0	-3.847309589E0	5.395236812E0
2.862178242E1	-6.643516421E-1	8.991990089E0	-1.072928071E0	9.080111427E0
2.864013378E1	-1.877994537E-1	1.257774830E1	5.501266718E-1	1.259117390E1
2.865847237E1	2.158354759E0	1.329311085E1	1.417130113E0	1.354154899E1
2.867679820E1	4.826682568E0	1.420442677E1	4.855256081E0	1.576819952E1
2.869514956E1	4.028926373E0	1.471452808E1	9.273843765E0	1.785367645E1
2.871348815E1	2.518318892E-1	1.561052608E1	8.292787552E0	1.767829939E1
2.873181399E1	-1.690399647E0	1.777423859E1	3.054224491E0	1.811378744E1
2.875016539E1	-4.968894124E-1	1.802636719E1	6.655087471E-1	1.804549016E1
2.876850399E1	1.513585210E0	1.822077942E1	4.982527494E-1	1.829032527E1
2.878682977E1	1.272016287E0	1.455990982E1	1.176474094E0	1.466264269E1
2.880518117E1	-1.211805463E0	7.348663330E0	-3.951840401E-1	7.458384252E0
2.882351977E1	-3.636663675E0	5.945892334E-1	-3.254194736E0	4.916161351E0
2.884184560E1	-4.549108505E0	-3.789708614E0	-4.243038177E0	7.284205691E0
2.886019695E1	-2.858989954E0	-5.417837143E0	-2.687904119E0	6.689664522E0
2.887853555E1	-8.023655415E-2	-4.308627605E0	-9.527854919E-1	4.413446492E0
2.889686138E1	9.400119781E-1	-4.767093182E0	8.797945976E-1	4.937898182E0
2.891521274E1	2.120974064E-1	-6.561227798E0	1.238165855E0	6.680400453E0
2.893355133E1	-1.020522356E0	-8.595802307E0	6.715538502E-1	8.682181048E0
2.895187716E1	-2.472122669E0	-1.062350655E1	-3.204724789E-1	1.091205684E1
2.897022857E1	-3.099519730E0	-1.149088287E1	-1.677824259E0	1.201925563E1
2.898856716E1	-2.328598022E0	-9.805696487E0	-2.293146610E0	1.033598441E1
2.900690576E1	-2.259431839E0	-8.314789772E0	-1.602656364E0	8.764089719E0
2.902524435E1	-2.574697018E0	-7.717254639E0	-1.453816891E0	8.264300784E0
2.904358294E1	-2.872439146E0	-7.132993221E0	-1.807705164E0	7.899259263E0
2.906190878E1	-2.815791368E0	-7.096667767E0	-3.288259506E0	8.312883074E0
2.908026013E1	-2.547068834E0	-7.365416050E0	-3.286115885E0	8.457864438E0
2.909859873E1	-2.261211872E0	-8.614647865E0	-1.105311155E0	8.974795247E0
2.911692456E1	-2.117128849E0	-9.754059792E0	1.782362461E-1	9.982769412E0
2.913527591E1	-2.662664413E0	-9.664292336E0	-1.273529291E0	1.010495942E1
2.915361451E1	-3.141178608E0	-8.502037048E0	-4.808794975E0	1.026041647E1
2.917194034E1	-1.773931026E0	-6.555678368E0	-3.928027630E0	7.845581636E0
2.919029175E1	-3.529741764E-1	-4.324036598E0	6.974701881E-1	4.394126527E0
2.920863034E1	-3.282501698E-1	-2.483603001E0	2.934437752E0	3.858361953E0
2.922695612E1	-8.861160278E-1	9.724674225E-1	-2.076800108E0	2.458453414E0
2.924530753E1	-1.757256746E0	4.993191719E0	-6.128326416E0	8.097919454E0
2.926364612E1	-1.024006724E0	8.080464363E0	-1.742992640E0	8.329496830E0
2.928197195E1	1.171718836E0	1.127463341E1	2.470094681E0	1.160136420E1
2.930032331E1	3.400102139E0	1.449984455E1	1.675750613E0	1.498713871E1
2.931866844E1	4.620551109E0	1.601665688E1	-3.375301361E-1	1.667323354E1
2.933699428E1	3.484276056E0	1.309784126E1	2.694240808E0	1.381855850E1
2.935534563E1	1.901124477E0	1.207429600E1	6.279273510E0	1.374162195E1
2.937368422E1	1.916551352E0	1.352821350E1	8.632820129E0	1.616203307E1
2.939202282E1	1.772792101E0	1.483946800E1	7.095070839E0	1.654365838E1
2.941036141E1	-1.130920053E-1	1.357063103E1	2.090882301E0	1.373122737E1
2.942870006E1	-1.716967583E0	1.141428185E1	-2.587696552E0	1.182920036E1
2.944702584E1	-2.725823164E0	9.413503647E0	-4.879819870E0	1.094791326E1
2.946537724E1	-2.204151392E0	7.228453636E0	-3.218293190E0	8.213783317E0
2.948371584E1	1.269780397E-1	8.009330750E0	-3.840626478E-1	8.019539051E0
2.950204167E1	-1.604099870E-1	5.400610924E0	6.455510855E-1	5.441421314E0
2.952039302E1	-1.775183678E0	3.731603622E-1	-2.766528130E-1	1.834955728E0
2.953873162E1	-2.770914555E0	-4.043654919E0	-3.030500889E0	5.763076280E0
2.955705745E1	-2.905620575E0	-6.849369049E0	-4.571631908E0	8.732485649E0
2.957540881E1	5.105962753E-1	-5.286141396E0	-1.864325404E0	5.628473028E0
2.959374740E1	3.497393608E0	-3.478322029E0	2.717356205E0	5.631563809E0
2.961207323E1	3.255071163E0	-5.383532047E0	3.902318239E0	7.403106998E0
2.963042459E1	6.241160631E-1	-9.191511154E0	1.898076057E0	9.406173020E0
2.964876323E1	-1.792631745E0	-1.162121010E1	-9.633296132E-1	1.179805309E1
2.966708902E1	-2.784909010E0	-1.172801971E1	-3.626206398E0	1.258775347E1
2.968544042E1	-1.786010504E0	-8.926725388E0	-4.103804588E0	9.985863596E0
2.970377902E1	-4.837080240E-1	-6.951824665E0	-1.498724699E0	7.127974141E0
2.972210480E1	-3.605749607E-1	-7.045351505E0	8.870990872E-1	7.110129178E0
2.974045620E1	-6.532366872E-1	-8.542897224E0	2.364148855E0	8.888026269E0
2.975879480E1	-1.785048485E0	-1.035628128E1	-4.357601404E-1	1.051802486E1
2.977712063E1	-2.539068460E0	-1.085923672E1	-3.970267296E0	1.183777484E1
2.979547198E1	-1.858249903E0	-1.150846481E1	-4.762343764E-1	1.166724707E1
2.981381058E1	-1.350996852E0	-1.058771133E1	2.342687130E0	1.092762585E1
2.983213641E1	-7.721854448E-1	-8.887764931E0	2.638277531E0	9.303179250E0
2.985048776E1	-3.933553100E-1	-6.847830772E0	1.206335127E-1	6.860179818E0
2.986882636E1	-1.494397521E-1	-5.163184166E0	4.384686053E-1	5.183923002E0
2.988715219E1	-3.643805385E-1	-2.320590973E0	2.152805328E0	3.186296663E0
2.990550355E1	-1.144856095E0	2.118789673E0	5.662267208E-1	2.473980165E0
2.992384219E1	-8.059945703E-1	9.476995468E0	-5.147508621E0	1.081480075E1
2.994216797E1	3.996519446E-1	1.416737843E1	-4.356427193E0	1.482743373E1
2.996051938E1	1.266531229E0	1.513786697E1	-6.035168171E-1	1.520274154E1
2.997885797E1	5.242494941E-1	1.480582619E1	-3.897054195E-1	1.482022931E1
2.999718381E1	-1.554114342E0	1.613157082E1	-3.850544691E0	1.665741705E1
3.001553516E1	-4.534944534E0	1.654021072E1	-7.130633354E0	1.857391248E1
3.003387375E1	-5.607819557E0	1.528953266E1	-5.222053528E0	1.710225986E1
3.005219959E1	-2.702569008E0	1.403794384E1	-7.851004601E-2	1.429594034E1
3.007055094E1	6.661149859E-1	1.299938107E1	9.281826019E-1	1.304948812E1
3.008888954E1	1.612098098E0	1.108290863E1	-3.188284874E0	1.164452165E1
3.010721537E1	9.815770388E-1	5.117042542E0	-4.679582119E0	7.003292559E0
3.012556672E1	1.259348035E0	5.832538605E-1	-3.737334728E0	3.986704580E0
3.014390537E1	2.114149094E0	-1.542006493E0	5.475879908E-1	2.673436556E0
3.016223115E1	2.028130531E0	-3.944831848E0	3.237477303E0	5.491472575E0
3.018058256E1	8.639193773E-1	-7.847487450E0	1.824796915E0	8.103042623E0
3.019892115E1	-2.127268910E-1	-1.200906849E1	1.408557296E0	1.209326310E1
3.021724693E1	-8.465110660E-1	-1.337773323E1	9.779639244E-1	1.344011685E1
3.023559834E1	-1.099486828E0	-1.237626266E1	3.587808907E-1	1.243018393E1
3.025393693E1	-1.089635611E0	-1.046346664E1	-1.376026273E0	1.060966014E1
3.027226276E1	-1.191339135E0	-8.933910370E0	-2.765654325E0	9.427772127E0
3.029061412E1	-8.157086372E-1	-7.893527031E0	-2.532447815E0	8.329852430E0
3.030895271E1	-3.337590694E-1	-7.586663723E0	-1.328874826E0	7.709394909E0
