"Time (s)"	"Linear Acceleration x (m/s^2)"	"Linear Acceleration y (m/s^2)"	"Linear Acceleration z (m/s^2)"	"Absolute acceleration (m/s^2)"
-1.812625000e-3	-1.477749270e0	-2.926977284e-1	-1.146751841e0	1.893265605e0
8.168375003e-3	-1.400591167e0	-1.875223987e-1	-1.256516358e0	1.890939878e0
1.814837500e-2	-1.386430964e0	-8.327677622e-2	-1.334593059e0	1.926204681e0
2.812937500e-2	-1.630346396e0	-4.668271710e-2	-1.409452037e0	2.155635334e0
3.810937500e-2	-2.025490705e0	-7.180512384e-2	-1.465606942e0	2.501154190e0
4.809037500e-2	-2.489608185e0	-7.147605350e-2	-1.597452884e0	2.958904097e0
5.807037500e-2	-2.885776926e0	-4.124333560e-2	-1.703707318e0	3.351421803e0
6.805137500e-2	-3.198558524e0	2.340755543e-2	-1.787858691e0	3.664391252e0
7.803137500e-2	-3.517200202e0	1.135268987e-1	-1.840428084e0	3.971241764e0
8.801237500e-2	-3.765492275e0	2.259954697e-1	-1.790535547e0	4.175646485e0
9.799237500e-2	-3.941752498e0	2.122936893e-1	-1.756539250e0	4.320637858e0
1.079729167e-1	-4.038543797e0	1.053506000e-1	-1.762556620e0	4.407668385e0
1.179529167e-1	-3.982732124e0	3.336070418e-2	-1.736963357e0	4.345147847e0
1.279339167e-1	-3.794864008e0	5.852565398e-2	-1.745254124e0	4.177359220e0
1.379139167e-1	-3.531957405e0	1.327629317e-1	-1.758094025e0	3.947561742e0
1.478949167e-1	-3.210521343e0	1.788927855e-1	-1.770969594e0	3.670937649e0
1.578749167e-1	-2.868373858e0	2.496455567e-1	-1.765828722e0	3.377579394e0
1.678559167e-1	-2.562897186e0	2.760214694e-1	-1.800172927e0	3.144082124e0
1.778369167e-1	-2.263868238e0	2.196756528e-1	-1.785963024e0	2.891888780e0
1.878169167e-1	-1.940696138e0	2.494641468e-2	-1.816742767e0	2.658472889e0
1.977979167e-1	-1.284568959e0	-4.743071303e-1	-1.826905813e0	2.283127135e0
2.077779167e-1	-9.318766057e-2	-9.204710269e-1	-1.482658592e0	1.747634788e0
2.177589167e-1	1.658567398e0	-1.178911088e0	-8.792820704e-1	2.216712459e0
2.277389167e-1	3.797277154e0	-1.339604561e0	9.191823006e-3	4.026653531e0
2.377199167e-1	5.879232082e0	-1.345021129e0	8.810765809e-1	6.095141315e0
2.476999167e-1	7.831153704e0	-1.203405221e0	1.844697720e0	8.134989990e0
2.576809167e-1	9.483378627e0	-7.143215919e-1	3.281017714e0	1.006030828e1
2.676609167e-1	1.027314626e1	9.337389439e-2	4.973024753e0	1.141390502e1
2.776419167e-1	1.000377907e1	5.413328862e-1	7.037152104e0	1.224296315e1
2.876219167e-1	9.287159518e0	2.616262092e-1	9.037013294e0	1.296099493e1
2.976029167e-1	8.973479787e0	-1.457738819e-1	1.044185246e1	1.376869174e1
3.075829167e-1	9.750679412e0	-1.325506778e-1	1.100465632e1	1.470359750e1
3.175639167e-1	1.126972347e1	2.526526335e-1	1.090491335e1	1.568399298e1
3.275449167e-1	1.278223795e1	5.875630197e-1	1.044191210e1	1.651557948e1
3.375249167e-1	1.364194939e1	4.746692191e-1	9.745460188e0	1.677206273e1
3.475059167e-1	1.395371240e1	5.017482595e-1	9.272868338e0	1.676138205e1
3.574859167e-1	1.377265337e1	4.863270322e-1	8.922856933e0	1.641766947e1
3.674669167e-1	1.287335979e1	3.921487802e-1	8.196601174e0	1.526635005e1
3.774469167e-1	1.183047262e1	4.856314328e-1	7.427431530e0	1.397721931e1
3.874279167e-1	1.089881003e1	5.813428979e-1	6.451111407e0	1.267828293e1
3.974079167e-1	1.014483262e1	6.454817373e-1	5.191652731e0	1.141435647e1
4.073889167e-1	9.660907111e0	4.904952930e-1	3.598833180e0	1.032111002e1
4.173689167e-1	9.393479440e0	3.515546317e-1	1.805786839e0	9.571933596e0
4.273499167e-1	9.103462222e0	1.616910079e-1	6.019766986e-2	9.105097043e0
4.373299167e-1	8.524934612e0	-2.529156120e-1	-1.705051008e0	8.697452235e0
4.473109167e-1	7.736100782e0	-2.307067175e-1	-3.067320400e0	8.325198816e0
4.572909167e-1	6.441971624e0	4.329660000e-1	-3.802002874e0	7.492775442e0
4.672719167e-1	4.249723007e0	1.058149274e0	-3.805507695e0	5.801871624e0
4.772519167e-1	1.148201365e0	1.389086185e0	-3.095433521e0	3.581848055e0
4.872329167e-1	-2.188257893e0	1.452075608e0	-2.058778319e0	3.336999302e0
4.972139167e-1	-5.241183325e0	1.531481381e0	-1.332981274e0	5.620700752e0
5.071939167e-1	-7.632417954e0	1.575820964e0	-1.063239568e0	7.865589228e0
5.171749167e-1	-9.108143502e0	1.428644061e0	-1.206613296e0	9.298129788e0
5.271549167e-1	-9.441435379e0	9.424998271e-1	-1.601040443e0	9.622491281e0
5.371359167e-1	-8.788275663e0	4.295673059e-1	-2.246613690e0	9.081056672e0
5.471159167e-1	-7.692120364e0	3.845900846e-1	-3.027621607e0	8.275452726e0
5.570969167e-1	-6.498245813e0	6.308672065e-1	-3.502428966e0	7.408927098e0
5.670769167e-1	-5.869828005e0	6.563598973e-1	-3.520102175e0	6.875813293e0
5.770579167e-1	-6.064051459e0	4.236829604e-1	-3.402524609e0	6.966304692e0
5.870379167e-1	-6.794291511e0	1.022072100e-1	-3.202172981e0	7.511774440e0
5.970189167e-1	-7.781423135e0	-1.719957022e-1	-3.126109183e0	8.387650872e0
6.069989167e-1	-8.719334067e0	-4.448568977e-1	-3.264025705e0	9.320866271e0
6.169799167e-1	-9.361491662e0	-5.724486981e-1	-3.393785360e0	9.974116639e0
6.269599167e-1	-9.551617972e0	-7.829154249e-1	-3.419692619e0	1.017549311e1
6.369409167e-1	-9.489603572e0	-1.187179636e0	-3.658879699e0	1.023959824e1
6.469219167e-1	-9.360473662e0	-1.606577903e0	-4.220722864e0	1.039298134e1
6.569019167e-1	-8.984723398e0	-1.870916928e0	-4.906366494e0	1.040663331e1
6.668829167e-1	-8.789648589e0	-1.946036253e0	-5.430012138e0	1.051332541e1
6.768629167e-1	-9.226751348e0	-1.836188998e0	-6.123528167e0	1.122506693e1
6.868439167e-1	-9.863429518e0	-1.404409106e0	-6.607131493e0	1.195465572e1
6.968239167e-1	-1.068327464e1	-9.024190642e-1	-6.889453191e0	1.274406852e1
7.068049167e-1	-1.150294201e1	-4.499220483e-1	-6.922591701e0	1.343288430e1
7.167849167e-1	-1.199977057e1	-1.984780160e-1	-6.420265006e0	1.361079314e1
7.267659167e-1	-1.197890770e1	-7.912744582e-2	-5.375340087e0	1.312991896e1
7.367459167e-1	-1.158218581e1	-5.791009292e-2	-4.200308188e0	1.232042900e1
7.467269167e-1	-1.084984778e1	-4.349630434e-2	-3.336083867e0	1.135123537e1
7.567069167e-1	-9.887836965e0	1.724868684e-1	-2.869370808e0	1.029720158e1
7.666879167e-1	-8.994824463e0	4.410047155e-1	-2.775496100e0	9.423626207e0
7.766679167e-1	-8.305721912e0	5.928038791e-1	-2.874094189e0	8.808907443e0
7.866489167e-1	-8.011440904e0	4.321301405e-1	-3.230009820e0	8.648866126e0
7.966289167e-1	-7.924479944e0	2.343108133e-1	-3.803998821e0	8.793332188e0
8.066099167e-1	-7.694187355e0	1.979330738e-1	-4.326999224e0	8.829644322e0
8.165909167e-1	-7.339793462e0	2.617773597e-1	-4.549274696e0	8.639270554e0
8.265709167e-1	-6.951453558e0	3.007715638e-1	-4.290075227e0	8.174222627e0
8.365519167e-1	-6.386512538e0	2.036969666e-1	-3.512852798e0	7.291719251e0
8.465319167e-1	-5.428246863e0	1.839042878e-1	-2.042611352e0	5.802753306e0
8.565129167e-1	-4.077931811e0	2.735707094e-2	-3.002290884e-1	4.089060255e0
8.664929167e-1	-2.360720934e0	-1.352115995e-1	1.472125418e0	2.785397413e0
8.764739167e-1	-7.174849355e-1	-4.374702564e-1	2.957236333e0	3.074314816e0
8.864539167e-1	9.231139684e-1	-9.580727166e-1	3.923482288e0	4.142916363e0
8.964349167e-1	2.870926752e0	-1.278279840e0	4.907005595e0	5.827085350e0
9.064149167e-1	5.065493206e0	-1.434798109e0	5.779896659e0	7.818252517e0
9.163959167e-1	7.767285152e0	-1.165404897e0	6.530273936e0	1.021437051e1
9.263759167e-1	1.072215161e1	-7.365850116e-1	7.402456902e0	1.305003681e1
9.363569167e-1	1.329517676e1	-2.834737092e-1	7.754018989e0	1.539372901e1
9.463369167e-1	1.582876828e1	6.060636831e-1	7.604778750e0	1.757127993e1
9.563179167e-1	1.828683483e1	1.601802336e0	7.544681067e0	1.984682119e1
9.662979167e-1	2.013363580e1	2.611393992e0	7.297776539e0	2.157406339e1
9.762789167e-1	2.119444468e1	3.052592141e0	6.807464118e0	2.246918716e1
9.862599167e-1	2.187266088e1	2.926848061e0	5.966747943e0	2.286004844e1
9.962399167e-1	2.324758920e1	3.302409752e0	4.869461208e0	2.398057477e1
1.006220917e0	2.493021438e1	4.077186291e0	3.663812411e0	2.552572347e1
1.016200917e0	2.581824506e1	4.563276438e0	2.614981844e0	2.634849900e1
1.026181917e0	2.592156302e1	4.468920504e0	2.529808962e0	2.642534036e1
1.036161917e0	2.559234373e1	4.236572619e0	3.357544318e0	2.615702026e1
1.046142917e0	2.343593036e1	3.267282019e0	4.552810507e0	2.409659825e1
1.056122917e0	1.916486209e1	2.170743435e0	4.644242541e0	1.983867573e1
1.066103917e0	1.476129825e1	2.033881459e0	3.676909004e0	1.534771187e1
1.076083917e0	1.125260750e1	2.430831534e0	2.104050678e0	1.170286917e1
1.086064917e0	7.943482225e0	2.711530484e0	1.960796526e-1	8.395817688e0
1.096044917e0	4.877340331e0	2.651505015e0	-1.526002248e0	5.757396148e0
1.106026792e0	2.788406167e0	1.801397919e0	-2.278708764e0	4.026506804e0
1.116006792e0	8.192691725e-1	1.355003350e0	-2.137207315e0	2.659866756e0
1.125987792e0	-2.165766578e0	1.068703206e0	-1.539616320e0	2.864103669e0
1.135968792e0	-5.679062594e0	4.759572876e-1	-4.413650867e-1	5.716038001e0
1.145948792e0	-9.008202893e0	-2.499021763e-1	9.326873222e-1	9.059805522e0
1.155929792e0	-1.146361598e1	-1.193464223e0	2.212954777e0	1.173609888e1
1.165909792e0	-1.261039179e1	-2.370401145e0	3.018647300e0	1.318154066e1
1.175890792e0	-1.275403683e1	-2.589960731e0	3.570322741e0	1.349520494e1
1.185870792e0	-1.258828581e1	-2.311206858e0	3.937096360e0	1.339056923e1
1.195851792e0	-1.275824799e1	-2.225803011e0	3.703592480e0	1.347010349e1
1.205831792e0	-1.372276610e1	-1.900176395e0	2.437408629e0	1.406648287e1
1.215812792e0	-1.481160302e1	-1.281373456e0	6.478036666e-1	1.488103328e1
1.225792792e0	-1.546707706e1	-7.555254588e-1	-1.220056629e0	1.553350668e1
1.235773792e0	-1.516451523e1	-3.458116427e-1	-2.790898835e0	1.542307441e1
1.245753792e0	-1.443026866e1	-3.753886867e-2	-4.017270165e0	1.497906948e1
1.255734792e0	-1.334289004e1	1.816497476e-1	-5.030867164e0	1.426097246e1
1.265714792e0	-1.190239338e1	5.160973267e-1	-5.326884795e0	1.305025004e1
1.275695792e0	-1.069587656e1	8.335890768e-1	-5.074931781e0	1.186809078e1
1.285676792e0	-9.938538172e0	9.703822750e-1	-4.367311099e0	1.089906368e1
1.295656792e0	-9.480847367e0	9.453529760e-1	-3.301785854e0	1.008374677e1
1.305637792e0	-9.302687384e0	7.686913419e-1	-2.288118103e0	9.610742084e0
1.315617792e0	-9.133674200e0	6.056602983e-1	-1.424162462e0	9.263858133e0
1.325598792e0	-9.323815128e0	4.999041208e-1	-9.983047763e-1	9.390423052e0
1.335578792e0	-9.657891701e0	5.201880388e-1	-1.153144309e0	9.740390624e0
1.345559792e0	-9.433831075e0	8.954368309e-1	-1.329038496e0	9.568976915e0
1.355539792e0	-8.911824406e0	1.243698822e0	-1.379420738e0	9.103307233e0
1.365520792e0	-8.546363488e0	1.239263563e0	-1.654994164e0	8.792901042e0
1.375500792e0	-8.258182880e0	1.225447031e0	-1.970049160e0	8.577901759e0
1.385481792e0	-7.931684883e0	1.361445666e0	-1.952721521e0	8.281200439e0
1.395461792e0	-7.774723980e0	1.405382375e0	-1.902510603e0	8.126560107e0
1.405442792e0	-7.868174765e0	1.340862590e0	-1.701035140e0	8.160858237e0
1.415422792e0	-8.270976003e0	1.119898064e0	-1.601934775e0	8.498788781e0
1.425403792e0	-8.854914041e0	9.075434178e-1	-1.635958554e0	9.050386628e0
1.435383792e0	-9.449742519e0	8.860996315e-1	-1.556228260e0	9.617933906e0
1.445364792e0	-9.613512504e0	7.046382373e-1	-1.096218157e0	9.701434531e0
1.455345792e0	-9.336665554e0	2.523982796e-1	-4.578007329e-1	9.351289220e0
1.465325792e0	-8.541186363e0	-2.185878880e-1	-2.003223923e-1	8.546331038e0
1.475306792e0	-6.985611822e0	-5.879886604e-1	-7.292968959e-2	7.010693399e0
1.485286792e0	-4.830097167e0	-8.971687031e-1	2.325879130e-1	4.918215882e0
1.495267792e0	-2.284829337e0	-9.425085980e-1	8.803819317e-1	2.623707282e0
1.505247792e0	8.937287861e-1	-3.126657872e-1	2.125904062e0	2.327225627e0
1.515228792e0	3.587974316e0	6.035205463e-2	3.518813449e0	5.025858151e0
1.525208792e0	5.457565387e0	-1.148080328e-1	3.935980711e0	6.729795316e0
1.535189792e0	7.812337364e0	4.589307073e-1	3.525227845e0	8.583149995e0
1.545169792e0	1.111940559e1	1.868278372e0	2.086411383e0	1.146668031e1
1.555150792e0	1.506170247e1	2.583373258e0	-4.713662732e-1	1.528891379e1
1.565130792e0	1.809435502e1	3.118655445e0	-3.298174029e0	1.865501668e1
1.575111792e0	2.090048643e1	2.484636590e0	-4.299188697e0	2.148224326e1
1.585091792e0	2.503836448e1	9.989688007e-1	-4.536368429e0	2.546558998e1
1.595072792e0	2.996136689e1	-5.646122597e-2	-3.916762667e0	3.021634862e1
1.605053792e0	3.355819974e1	-9.395372622e-1	-3.016676496e0	3.370661414e1
1.615033792e0	3.319810247e1	-1.555052385e-1	-2.329645906e0	3.328010576e1
1.625014792e0	2.986870723e1	1.246392781e0	-9.529350606e-1	2.990988552e1
1.634994792e0	2.337691558e1	2.484807621e0	1.857157260e0	2.358184649e1
1.644975792e0	1.493984181e1	2.608613057e0	5.275858483e0	1.605734780e1
1.654955792e0	8.399303091e0	1.746356324e0	7.951863039e0	1.169744325e1
1.664936792e0	4.385501786e0	4.303164804e-1	9.347678200e0	1.033425788e1
1.674916792e0	2.663907251e0	-9.639226366e-1	1.009374783e1	1.048376335e1
1.684897792e0	2.391537514e0	-2.826790799e0	9.557178090e0	1.024938295e1
1.694877792e0	3.523639156e0	-5.383593432e0	8.238701127e0	1.045348303e1
1.704858792e0	5.441487299e0	-6.277375427e0	6.596701230e0	1.060809565e1
1.714838792e0	6.460449411e0	-5.063705712e0	4.430115165e0	9.327617193e0
1.724819792e0	5.257443847e0	-3.278649884e0	1.689207685e0	6.422124529e0
1.734799792e0	2.161502788e0	-1.707490759e0	-1.342476567e0	3.064288225e0
1.744780792e0	-2.075436451e0	-7.558391619e-1	-3.943363113e0	4.519827645e0
1.754760792e0	-6.314961914e0	5.050068397e-2	-5.508308694e0	8.379902086e0
1.764741792e0	-9.719690339e0	8.568924969e-1	-5.729809409e0	1.131535951e1
1.774722792e0	-1.196705540e1	1.118213628e0	-4.947713910e0	1.299771863e1
1.784702792e0	-1.291768987e1	6.042989203e-1	-3.573759735e0	1.341654379e1
1.794683792e0	-1.261042103e1	7.391991556e-2	-1.758018011e0	1.273258850e1
1.804663792e0	-1.181459042e1	-3.884886425e-2	-2.074372843e-1	1.181647520e1
1.814644792e0	-1.117733162e1	4.284340059e-1	1.224238850e0	1.125233569e1
1.824624792e0	-1.069258575e1	6.447470346e-1	2.013431407e0	1.089958691e1
1.834605792e0	-1.096309782e1	7.910730947e-2	2.077064609e0	1.115840353e1
1.844585792e0	-1.110278430e1	-4.770403747e-1	1.889902252e0	1.127258254e1
1.854566792e0	-1.148348248e1	-7.272500780e-1	1.316405587e0	1.158154507e1
1.864546792e0	-1.214041014e1	-6.448829824e-1	4.479826730e-1	1.216577662e1
1.874527792e0	-1.235018952e1	-3.577566272e-1	-2.966494229e-1	1.235893086e1
1.884507792e0	-1.147318202e1	8.013408054e-2	-8.910411134e-1	1.150800945e1
1.894488792e0	-9.557150608e0	1.104239659e0	-6.990097806e-1	9.646091832e0
1.904469792e0	-8.079487876e0	1.660454294e0	-5.986203969e-1	8.270041063e0
1.914449792e0	-7.052289376e0	1.874670840e0	-7.506982899e-1	7.335715652e0
1.924430792e0	-6.606316976e0	1.787293850e0	-8.293670216e-1	6.893888087e0
1.934410792e0	-6.757750506e0	1.411466403e0	-1.099941079e0	6.990658029e0
1.944391792e0	-7.368113866e0	8.448255980e-1	-1.626400987e0	7.592628820e0
1.954371792e0	-7.913121142e0	5.129575181e-1	-2.405806767e0	8.286646959e0
1.964352792e0	-7.954536971e0	5.603848690e-1	-3.093621176e0	8.553314071e0
1.974332792e0	-7.705715725e0	1.000148696e0	-3.258169426e0	8.425794934e0
1.984313792e0	-7.580525669e0	1.270982369e0	-2.996750354e0	8.249865350e0
1.994293792e0	-7.658805853e0	1.091135172e0	-2.687675306e0	8.189718042e0
2.004274792e0	-7.501342090e0	7.630692440e-1	-2.122919936e0	7.833211147e0
2.014254792e0	-6.800836299e0	1.550593883e-1	-1.561409478e0	6.979499791e0
2.024235792e0	-6.043176899e0	9.412526160e-2	-1.195610005e0	6.161033183e0
2.034215792e0	-6.511992617e0	3.835466489e-1	-8.819697431e-1	6.582630667e0
2.044196792e0	-6.811075358e0	-2.499012810e-1	-7.979584104e-1	6.862210709e0
2.054176792e0	-7.227653221e0	-1.176331808e0	-4.522751141e-1	7.336707735e0
2.064157792e0	-7.420429489e0	-1.838695261e0	4.432043284e-2	7.644968173e0
2.074138792e0	-6.847802889e0	-2.214816823e0	5.717211583e-1	7.219742589e0
2.084118792e0	-5.938760830e0	-2.231938055e0	9.211662608e-1	6.410848225e0
2.094099792e0	-4.284885238e0	-2.121713655e0	1.183931069e0	4.925809894e0
2.104079625e0	-1.880223064e0	-1.989477411e0	1.312546425e0	3.035792690e0
2.114060625e0	1.555629505e0	-1.646836129e0	1.274087241e0	2.599105748e0
2.124040625e0	5.906790594e0	-1.512483485e0	7.513482079e-1	6.143476666e0
2.134021625e0	1.077741481e1	-1.586114256e0	-4.903907740e-1	1.090453629e1
2.144001625e0	1.581945951e1	-2.401197699e0	-2.309015760e0	1.616640354e1
2.153982625e0	2.019364928e1	-3.445164552e0	-3.403774159e0	2.076627816e1
2.163962625e0	2.449344141e1	-2.402575011e0	-2.732219395e0	2.476219016e1
2.173943625e0	2.978355072e1	-4.838187229e-2	-1.284410208e0	2.981127210e1
2.183923625e0	3.504866436e1	2.307271828e0	7.296532837e-1	3.513210456e1
2.193904625e0	3.562290304e1	7.611015829e-1	2.726252896e0	3.573517807e1
2.203884625e0	2.981474679e1	1.259080946e-2	6.446126071e0	3.050363628e1
2.213865625e0	2.047761580e1	-5.587306917e-3	1.028194749e1	2.291399625e1
2.223846625e0	1.302944653e1	-3.935378959e-2	1.179155239e1	1.757295460e1
2.233826625e0	9.197260916e0	2.657957125e-1	1.222549648e1	1.530107904e1
2.243807625e0	9.371654123e0	4.729818588e-1	1.117996053e1	1.459599706e1
2.253787625e0	1.127630159e1	7.296608850e-1	8.995791593e0	1.444339465e1
2.263768625e0	1.125066740e1	2.950393921e-1	6.125016283e0	1.281328957e1
2.273748625e0	9.566602632e0	-1.088282900e0	3.211156058e0	1.014966841e1
2.283729625e0	7.535750030e0	-1.654910841e0	7.082615376e-1	7.747766957e0
2.293709625e0	4.732193727e0	-1.669528003e0	-1.464175251e0	5.227311967e0
2.303690625e0	1.534228696e0	-1.405195557e0	-2.808150168e0	3.494873332e0
2.313670625e0	-1.662051753e0	-7.918477777e-1	-3.396965369e0	3.863782169e0
2.323651625e0	-4.744034339e0	3.805017114e-2	-3.311386982e0	5.785550395e0
2.333631625e0	-7.720778153e0	4.233296424e-1	-2.855302407e0	8.242716488e0
2.343612625e0	-9.784616067e0	6.195551831e-1	-2.311507551e0	1.007301481e1
2.353592625e0	-1.055707886e1	7.004429331e-1	-1.754378704e0	1.072475543e1
2.363573625e0	-1.040091026e1	5.666372967e-1	-1.183362720e0	1.048333722e1
2.373554625e0	-1.013490872e1	5.972264206e-1	-1.005301847e0	1.020214125e1
2.383534625e0	-1.027367368e1	8.086208081e-1	-1.064658687e0	1.036029616e1
2.393515625e0	-1.099891670e1	6.820379448e-1	-1.203309911e0	1.108554460e1
2.403495625e0	-1.208508846e1	2.988435906e-1	-1.723835188e0	1.221107196e1
2.413476625e0	-1.268118286e1	2.055571121e-1	-2.456624626e0	1.291857798e1
2.423456625e0	-1.236090864e1	2.358182073e-1	-3.184244540e0	1.276663957e1
2.433437625e0	-1.141173012e1	2.187887764e-1	-3.786646916e0	1.202556226e1
2.443417625e0	-1.018808096e1	3.962117180e-1	-4.116309134e0	1.099536167e1
2.453398625e0	-9.073140900e0	5.429388240e-1	-4.213025005e0	1.001829567e1
2.463378625e0	-8.191832770e0	7.297418690e-1	-3.815521344e0	9.066247870e0
2.473359625e0	-7.963068058e0	6.404133707e-1	-3.314653237e0	8.649133383e0
2.483339625e0	-8.236178638e0	2.992584506e-1	-3.470710452e0	8.942596112e0
2.493320625e0	-7.962010882e0	4.594476011e-1	-3.736871908e0	8.807322013e0
2.503300625e0	-7.554354701e0	8.243577120e-1	-3.703197209e0	8.453491004e0
2.513281625e0	-7.541478547e0	7.257099214e-1	-3.381291322e0	8.296606811e0
2.523262625e0	-7.603463126e0	3.708839187e-1	-2.765820419e0	8.099380778e0
2.533242625e0	-7.409073611e0	2.008992201e-1	-1.927436407e0	7.658312045e0
2.543223625e0	-6.942544155e0	1.093584278e-1	-8.720315230e-1	6.997950956e0
2.553203625e0	-6.597137432e0	-2.995364674e-1	5.107279748e-2	6.604131497e0
2.563184625e0	-6.606165533e0	-9.657115191e-1	2.349387860e-1	6.680510311e0
2.573164625e0	-6.371408011e0	-1.142980094e0	6.459243715e-2	6.473439250e0
2.583145625e0	-5.643238458e0	-8.714412466e-1	-2.847827911e-2	5.710197996e0
2.593125625e0	-5.191159810e0	-8.228426984e-1	-1.537428877e-1	5.258217108e0
2.603106625e0	-5.271542653e0	-1.098735090e0	-2.783833060e-1	5.392019845e0
2.613086625e0	-5.574744759e0	-1.289634695e0	-2.534311903e-1	5.727579256e0
2.623067625e0	-5.890910141e0	-1.290507684e0	-2.208104512e-1	6.034649089e0
2.633047625e0	-5.903244842e0	-1.274136650e0	-2.288559276e-1	6.043517097e0
2.643028625e0	-5.686554632e0	-1.107681915e0	-8.626748085e-2	5.794074981e0
2.653008625e0	-5.387542641e0	-9.277087104e-1	4.569014311e-3	5.466834554e0
2.662989625e0	-4.638186872e0	-5.862915426e-1	-2.232139492e-1	4.680420889e0
2.672970625e0	-3.131972187e0	8.049012115e-2	-5.394018432e-1	3.179100940e0
2.682950625e0	-1.162419455e0	6.465488541e-1	-7.930242375e-1	1.548590279e0
2.692931625e0	1.320934548e0	3.314786553e-1	-1.344003714e0	1.913398067e0
2.702911625e0	4.976712592e0	-7.958411336e-2	-1.786838937e0	5.288364136e0
2.712892625e0	9.878215957e0	-8.944981883e-2	-2.443439301e0	1.017632288e1
2.722872625e0	1.611655537e1	6.983145466e-1	-2.901167967e0	1.639047821e1
2.732853625e0	2.224859709e1	1.393169296e0	-2.568170789e0	2.243961885e1
2.742833625e0	2.626715919e1	9.500368881e-1	-1.453914850e0	2.632451501e1
2.752814625e0	2.800247948e1	-4.996858004e-1	2.346961266e-1	2.800792076e1
2.762794625e0	2.823962384e1	-7.758702609e-1	1.789242142e0	2.830688461e1
2.772775625e0	2.728548922e1	-6.868401716e-2	3.176574455e0	2.746986103e1
2.782755625e0	2.499360054e1	1.575172654e-1	4.274795575e0	2.535702579e1
2.792736625e0	2.204188398e1	2.577013662e-2	5.370866382e0	2.268681377e1
2.802716625e0	1.913636510e1	-8.577487120e-2	6.351464328e0	2.016305844e1
2.812697625e0	1.629203148e1	-1.342389334e-1	6.989327728e0	1.772848025e1
2.822678625e0	1.338632783e1	-1.050288935e-1	6.925864388e0	1.507223943e1
2.832658625e0	1.048590305e1	-3.140159823e-1	5.918522447e0	1.204498554e1
2.842639625e0	7.551649194e0	-3.490404752e-1	4.264312395e0	8.679492785e0
2.852619625e0	4.756000666e0	-2.904964345e-1	2.094360673e0	5.204832095e0
2.862600625e0	2.212545472e0	-5.763191529e-1	-2.047352859e-1	2.295521242e0
2.872580625e0	5.008754164e-1	-8.326072562e-1	-2.051076951e0	2.269587558e0
2.882561625e0	-4.535468835e-1	-8.183643159e-1	-3.017270281e0	3.159010110e0
2.892541625e0	-1.392182286e0	-6.182030144e-1	-3.053838183e0	3.412663788e0
2.902522625e0	-2.527503405e0	-3.408810147e-1	-2.368783367e0	3.480748191e0
2.912502625e0	-4.080580015e0	-1.557780294e-1	-1.430162583e0	4.326749943e0
2.922483625e0	-5.781768937e0	-1.969894794e-1	-6.663130277e-1	5.823369295e0
2.932463625e0	-7.204749677e0	-3.602817473e-1	-3.784779900e-1	7.223674026e0
2.942444625e0	-8.033691314e0	-6.989074543e-1	-6.565832609e-1	8.090721188e0
2.952424625e0	-7.997083066e0	-7.654666024e-1	-7.209920955e-1	8.065922532e0
2.962405625e0	-7.637178172e0	-4.155095762e-1	-4.289207500e-1	7.660490301e0
2.972386625e0	-7.662536961e0	2.583827952e-2	-1.565290859e-1	7.664179125e0
2.982366625e0	-8.195923482e0	1.376227354e-1	-9.362240106e-2	8.197613487e0
2.992347625e0	-9.061523067e0	2.970856983e-2	-3.636643615e-1	9.068866228e0
3.002327625e0	-9.878363307e0	1.219323535e-2	-6.332291892e-1	9.898645842e0
3.012308625e0	-1.025312890e1	6.377737183e-2	-7.084524491e-1	1.027777333e1
3.022288625e0	-1.017712562e1	-1.014484607e-2	-8.180807260e-1	1.020995812e1
3.032269625e0	-9.678337076e0	-9.613348782e-2	-1.028087277e0	9.733263258e0
3.042249625e0	-8.828522633e0	-9.354134403e-2	-1.233967448e0	8.914832446e0
3.052230625e0	-7.927684218e0	1.842647687e-1	-1.258062946e0	8.029000743e0
3.062210625e0	-7.406847576e0	3.803450060e-1	-1.451549066e0	7.557317516e0
3.072191625e0	-7.216606661e0	4.107426336e-1	-1.846440775e0	7.460393069e0
3.082171625e0	-7.220328999e0	4.558873046e-1	-2.223136242e0	7.568574425e0
3.092152625e0	-7.394838565e0	4.890140471e-1	-2.548031809e0	7.836787495e0
3.102133625e0	-7.748587511e0	5.122090745e-1	-2.828851358e0	8.264706078e0
3.112112875e0	-8.138802032e0	5.712940558e-1	-2.964256208e0	8.680627297e0
3.122093875e0	-8.558854310e0	6.517672017e-1	-2.799669366e0	9.028673000e0
3.132073875e0	-9.038135959e0	5.359885311e-1	-2.591265537e0	9.417528466e0
3.142054875e0	-9.264689253e0	3.705991593e-1	-2.223165185e0	9.534897699e0
3.152034875e0	-9.241356524e0	1.866525157e-1	-1.744251619e0	9.406376734e0
3.162015875e0	-8.997988976e0	5.980824530e-2	-1.369657057e0	9.101831854e0
3.171995875e0	-8.567739739e0	6.812594611e-2	-1.060864721e0	8.633437284e0
3.181976875e0	-8.062989373e0	8.537260104e-2	-7.655230281e-1	8.099698242e0
3.191956875e0	-7.490292022e0	1.149393028e-1	-4.710101777e-1	7.505966707e0
3.201937875e0	-6.927371800e0	1.319678931e-1	-2.450033060e-1	6.932959123e0
3.211917875e0	-6.325719037e0	-3.579866420e-2	-1.938331524e-1	6.328789313e0
3.221898875e0	-5.659434661e0	-1.856715905e-1	-2.688178459e-1	5.668856821e0
3.231878875e0	-5.069694430e0	-2.056436326e-1	-4.531875721e-1	5.094062219e0
3.241859875e0	-4.564888515e0	-2.268184653e-1	-5.883503473e-1	4.608232840e0
3.251840875e0	-4.249075720e0	-9.898809850e-2	-6.058229971e-1	4.293188165e0
3.261820875e0	-4.083390772e0	1.634562823e-1	-5.111290938e-1	4.118501075e0
3.271801875e0	-3.796614665e0	4.210185304e-1	-2.227093345e-1	3.826374127e0
3.281781875e0	-3.469447746e0	6.508126438e-1	4.243967593e-2	3.530216125e0
3.291762875e0	-2.717819749e0	8.529467958e-1	1.960805297e-2	2.848586825e0
3.301742875e0	-1.509628290e0	1.063589231e0	-4.262842405e-1	1.895235574e0
3.311723875e0	4.288698792e-1	1.306446317e0	-1.058780774e0	1.735438872e0
3.321703875e0	3.690626864e0	1.909257998e0	-1.335671432e0	4.364631820e0
3.331684875e0	8.694567016e0	2.712746120e0	-8.864052947e-1	9.150967241e0
3.341664875e0	1.475038267e1	3.628247891e0	3.918334691e-1	1.519511452e1
3.351645875e0	1.969621027e1	3.471976082e0	1.684228342e0	2.007067368e1
3.361625875e0	2.224462332e1	1.331220385e0	3.348629360e0	2.253461189e1
3.371606875e0	2.335842902e1	-1.346579851e0	5.272395177e0	2.398390366e1
3.381586875e0	2.452648285e1	-3.495160000e0	6.509563683e0	2.561520884e1
3.391567875e0	2.655737288e1	-4.680457856e0	6.882186856e0	2.783101212e1
3.401547875e0	2.867676636e1	-4.456689591e0	6.582460336e0	2.975815510e1
3.411528875e0	2.942998363e1	-3.094826580e0	6.064371302e0	3.020725885e1
3.421509875e0	2.707880652e1	-2.430328235e0	5.490875221e0	2.773658177e1
3.431489875e0	2.211215816e1	-2.117999211e0	4.283368471e0	2.262257069e1
3.441470875e0	1.640152177e1	-1.867518818e0	2.484550928e0	1.669342793e1
3.451450875e0	1.135015193e1	-2.438943523e0	9.419113049e-1	1.164738559e1
3.461431875e0	7.725222037e0	-2.248647936e0	3.161121726e-2	8.045897857e0
3.471411875e0	5.328999733e0	-1.535262483e0	-4.895288944e-1	5.567307032e0
3.481392875e0	3.746943153e0	-4.507664959e-1	-2.177576199e-1	3.780237004e0
3.491372875e0	2.331852061e0	1.065452739e0	8.852357054e-1	2.712262123e0
3.501353875e0	3.390753579e-1	2.419431072e0	2.547393293e0	3.529565327e0
3.511333875e0	-2.401577184e0	3.062683558e0	4.028531317e0	5.601488027e0
3.521314875e0	-5.435444786e0	3.064721898e0	4.789576840e0	7.866169756e0
3.531294875e0	-8.366528277e0	2.448147333e0	4.504585888e0	9.812416359e0
3.541275875e0	-1.079321867e1	1.651094656e0	3.295398063e0	1.140523262e1
3.551256875e0	-1.235569526e1	1.010675803e0	2.008402509e0	1.255859672e1
3.561236875e0	-1.293870359e1	3.636389261e-1	8.240200353e-1	1.297001515e1
3.571217875e0	-1.262526243e1	-3.143718950e-2	-2.987754706e-1	1.262883631e1
3.581197875e0	-1.176344482e1	-1.892970286e-1	-1.302775142e0	1.183687841e1
3.591178875e0	-1.058256220e1	-9.062848046e-2	-2.052670610e0	1.078018056e1
3.601158875e0	-9.379777075e0	9.412818521e-2	-2.443491195e0	9.693282587e0
3.611139875e0	-8.330079074e0	-1.835582788e-1	-2.779122250e0	8.783361060e0
3.621119875e0	-7.568164655e0	-3.742405128e-1	-3.148364856e0	8.205447792e0
3.631100875e0	-7.062399212e0	-7.421242252e-2	-3.482052297e0	7.874495432e0
3.641080875e0	-6.814877218e0	2.432924107e-1	-3.685034003e0	7.751207538e0
3.651061875e0	-6.985992476e0	4.129499575e-1	-3.898723422e0	8.010908991e0
3.661041875e0	-7.479115069e0	3.752111506e-1	-4.087910669e0	8.531644581e0
3.671022875e0	-7.977960917e0	2.479336381e-2	-4.096827089e0	8.968414982e0
3.681002875e0	-8.287338851e0	-3.087396377e-1	-3.809886967e0	9.126365328e0
3.690983875e0	-8.374341327e0	-3.274000762e-1	-3.229878258e0	8.981586554e0
3.700964875e0	-8.198894452e0	-3.550672004e-1	-2.570772800e0	8.599814867e0
3.710944875e0	-7.874935316e0	-5.055653219e-1	-1.963951391e0	8.131869871e0
3.720925875e0	-7.648092000e0	-6.219220629e-1	-1.447821174e0	7.808731295e0
3.730905875e0	-7.238452443e0	-9.833060103e-1	-1.110270624e0	7.388828415e0
3.740886875e0	-7.100163454e0	-1.278779631e0	-1.550928636e-1	7.216069028e0
3.750866875e0	-7.941014700e0	-6.325023803e-1	-2.383453739e-1	7.969729120e0
3.760847875e0	-7.881309366e0	-7.127071025e-1	-5.158689930e-1	7.930265415e0
3.770827875e0	-7.965726203e0	-7.608505180e-1	1.375405455e-1	8.003162178e0
3.780808875e0	-8.028660370e0	-8.342336592e-1	-5.741395667e-2	8.072089537e0
3.790788875e0	-8.246631120e0	-1.084048639e0	-5.004655266e-1	8.332619758e0
3.800769875e0	-8.809713310e0	-1.024921010e0	-8.399259236e-1	8.908815142e0
3.810749875e0	-9.258218139e0	-9.306928369e-1	-1.135475778e0	9.373905137e0
3.820730875e0	-9.615159080e0	-9.161227450e-1	-1.299201032e0	9.745690757e0
3.830710875e0	-1.001497181e1	-1.030721740e0	-1.687711382e0	1.020835037e1
3.840691875e0	-1.026039231e1	-7.443999615e-1	-1.923240591e0	1.046559296e1
3.850672875e0	-9.953781863e0	-2.777681423e-1	-1.793603873e0	1.011790212e1
3.860652875e0	-9.063376635e0	-8.249544203e-2	-1.327296903e0	9.160421311e0
3.870633875e0	-7.607886545e0	-3.197477155e-1	-7.201829870e-1	7.648584171e0
3.880613875e0	-5.586929187e0	-6.147011170e-1	-7.673301101e-2	5.621167419e0
3.890594875e0	-2.978992653e0	-4.873101319e-1	6.275654300e-1	3.083132621e0
3.900574875e0	2.738642853e-1	-1.586545488e-1	9.953984177e-1	1.044505109e0
3.910555875e0	4.023920496e0	1.625657879e-1	1.648010981e0	4.351356568e0
3.920535875e0	7.755791865e0	-1.352472858e-1	2.378700976e0	8.113496017e0
3.930516875e0	1.209123505e1	-3.250827150e-1	3.186016539e0	1.250817114e1
3.940496875e0	1.777798206e1	1.283224100e-1	3.748042429e0	1.816923044e1
3.950477875e0	2.445678872e1	7.844557276e-1	3.222040065e0	2.468058807e1
3.960457875e0	3.130941673e1	8.204219511e-1	1.612316068e0	3.136163630e1
3.970438875e0	3.638853746e1	-5.271019328e-1	-5.630962229e-1	3.639671101e1
3.980419875e0	3.901823148e1	-1.968635303e0	-1.308653641e0	3.908977472e1
3.990399875e0	4.006943923e1	-1.738291259e0	-1.664294161e0	4.014164287e1
4.000380875e0	3.946393433e1	1.293444667e-1	-7.666591421e-1	3.947159243e1
4.010360875e0	3.654387225e1	1.736530370e0	1.760577922e0	3.662744560e1
4.020341875e0	3.128236050e1	2.375254773e0	4.521464461e0	3.169655430e1
4.030321875e0	2.470334008e1	3.021734045e0	6.093046632e0	2.562247265e1
4.040302875e0	1.801746881e1	3.912606174e0	6.350299562e0	1.950035830e1
4.050282875e0	1.214008854e1	4.112257598e0	6.001330715e0	1.415303440e1
4.060263875e0	7.473105885e0	3.437350041e0	5.901801749e0	1.012392961e1
4.070243875e0	3.248894280e0	2.939870102e0	5.639406778e0	7.141502578e0
4.080224875e0	-1.207088090e0	3.042993937e0	5.063636130e0	6.029700209e0
4.090204875e0	-5.832356123e0	2.971751753e0	4.314619792e0	7.839874386e0
4.100185875e0	-1.003472487e1	2.284330423e0	3.113038610e0	1.075197089e1
4.110166042e0	-1.294146231e1	9.844981114e-1	1.783708045e0	1.310085103e1
4.120147042e0	-1.415689496e1	-4.011927418e-1	5.127040413e-1	1.417185577e1
4.130128042e0	-1.408040519e1	-1.025875056e0	-6.976514724e-1	1.413495482e1
4.140108042e0	-1.322207253e1	-1.260553568e0	-1.531856773e0	1.337007040e1
4.150089042e0	-1.227041245e1	-1.256995537e0	-1.668455185e0	1.244695956e1
4.160069042e0	-1.230504551e1	-1.363455500e0	-1.801123392e0	1.251068349e1
4.170050042e0	-1.287942335e1	-1.303817409e0	-2.280908487e0	1.314465782e1
4.180030042e0	-1.347084466e1	-9.440540171e-1	-2.849867128e0	1.380132734e1
4.190011042e0	-1.388715589e1	-7.951654878e-1	-3.386001547e0	1.431608861e1
4.199991042e0	-1.377956595e1	-1.015486235e0	-3.979957035e0	1.437872414e1
4.209972042e0	-1.308178730e1	-9.032199866e-1	-4.547783071e0	1.387916770e1
4.219952042e0	-1.203283306e1	-5.636423528e-1	-4.703247671e0	1.293163961e1
4.229933042e0	-1.090500106e1	-6.575343105e-1	-4.563494539e0	1.183963183e1
4.239913042e0	-9.808098485e0	-7.426212385e-1	-4.044231091e0	1.063513457e1
4.249894042e0	-9.132604744e0	-5.884576437e-1	-3.388019421e0	9.758556626e0
4.259875042e0	-8.882704103e0	-3.709380054e-1	-2.813425233e0	9.324987331e0
4.269855042e0	-8.536649508e0	-1.658627039e-1	-1.975088875e0	8.763724741e0
4.279836042e0	-8.055830626e0	-1.019441584e-1	-9.717762512e-1	8.114872074e0
4.289816042e0	-7.781997331e0	-1.587714931e-1	-2.408123142e-1	7.787341101e0
4.299797042e0	-7.649460833e0	-3.059511736e-1	9.902435124e-2	7.656217276e0
4.309777042e0	-7.472683132e0	-3.548873985e-1	3.186019170e-1	7.487886580e0
4.319758042e0	-7.373085753e0	-4.187106344e-1	4.750685839e-1	7.400229880e0
4.329738042e0	-7.574175008e0	-5.630687410e-1	2.898821479e-1	7.600605576e0
4.339719042e0	-7.897241859e0	-6.968036261e-1	-2.001759195e-1	7.930449840e0
4.349699042e0	-7.970673532e0	-8.283341110e-1	-5.354671057e-1	8.031469291e0
4.359680042e0	-7.777737635e0	-7.361857930e-1	-7.290358177e-1	7.846442854e0
4.369660042e0	-7.494817182e0	-5.819409218e-1	-8.214194861e-1	7.562120721e0
4.379641042e0	-7.337695481e0	-5.227214912e-1	-8.981346631e-1	7.410914829e0
4.389621042e0	-7.233338469e0	-5.434884623e-1	-7.823182780e-1	7.295792417e0
4.399602042e0	-7.351288503e0	-6.216894168e-1	-5.822910239e-1	7.400473175e0
4.409583042e0	-7.659071317e0	-7.255505848e-1	-4.640081370e-1	7.707340698e0
4.419563042e0	-8.073293921e0	-7.921863315e-1	-2.572190166e-1	8.116144130e0
4.429544042e0	-8.497043393e0	-8.854646239e-1	5.661040306e-2	8.543242872e0
4.439524042e0	-9.050495219e0	-1.070249795e0	3.048713391e-1	9.118653676e0
4.449505042e0	-9.698232227e0	-1.361144973e0	6.096997011e-1	9.812245293e0
4.459485042e0	-1.043173444e1	-1.812863140e0	8.132270984e-1	1.061926996e1
4.469466042e0	-1.103093137e1	-2.324786724e0	1.047761696e0	1.132183222e1
4.479446042e0	-1.143914655e1	-2.952319117e0	1.372927258e0	1.189349365e1
4.489427042e0	-1.163539665e1	-3.597440666e0	1.474794526e0	1.226780556e1
4.499407042e0	-1.060295495e1	-4.395098822e0	1.075262467e0	1.152804132e1
4.509388042e0	-9.052274526e0	-5.561673308e0	6.699486803e-1	1.064540818e1
4.519368042e0	-6.343895107e0	-6.407928550e0	1.562056618e0	9.151315442e0
4.529349042e0	-2.894196332e0	-7.020123843e0	3.205048349e0	8.242017113e0
4.539330042e0	1.047855543e0	-5.433701731e0	4.592641155e0	7.191346781e0
4.549310042e0	6.770712029e0	-1.563293158e0	5.302723516e0	8.741012731e0
4.559291042e0	1.537971148e1	4.922835177e0	4.685362208e0	1.681435251e1
4.569271042e0	2.442406770e1	9.610940899e0	3.564686610e0	2.648796441e1
4.579252042e0	3.034058222e1	9.381120180e0	1.806773557e0	3.180913038e1
4.589232042e0	3.285178124e1	8.060004954e0	1.280281489e0	3.385029293e1
4.599213042e0	3.178278158e1	5.929249164e0	1.644442571e0	3.237291140e1
4.609193042e0	2.887701712e1	5.001848602e0	1.628533759e0	2.935221848e1
4.619174042e0	2.496236238e1	6.039073323e0	1.125928152e0	2.570715185e1
4.629154042e0	2.052266275e1	6.073116397e0	5.737706074e-1	2.141008271e1
4.639135042e0	1.818231234e1	5.240711455e0	1.253291326e0	1.896397316e1
4.649115042e0	1.888678956e1	4.309268128e0	3.300018826e0	1.965122734e1
4.659096042e0	2.063983159e1	2.472811473e0	6.084043674e0	2.165947904e1
4.669077042e0	2.117199838e1	4.817689814e-1	8.288674940e0	2.274176223e1
4.679057042e0	2.020595416e1	-1.195166786e0	8.860003458e0	2.209544452e1
4.689038042e0	1.838687017e1	-1.850313679e0	7.650301078e0	2.000069403e1
4.699018042e0	1.572955857e1	-1.285979308e0	5.013441292e0	1.655920739e1
4.708999042e0	1.253699169e1	-3.497348320e-1	2.019772128e0	1.270346231e1
4.718979042e0	9.306489244e0	6.086501259e-1	-3.960038495e-1	9.334774559e0
4.728960042e0	5.766761473e0	1.422270596e0	-2.085449224e0	6.295036934e0
4.738940042e0	1.667564508e0	1.816590739e0	-3.386104166e0	4.188851242e0
4.748921042e0	-2.623280797e0	1.985583458e0	-4.614434313e0	5.667199294e0
4.758901042e0	-6.356646130e0	2.094132631e0	-5.392596974e0	8.594908006e0
4.768882042e0	-8.833968145e0	1.740367021e0	-5.774638842e0	1.069646317e1
4.778862042e0	-9.702811182e0	1.192919117e0	-5.845025285e0	1.138999216e1
4.788843042e0	-9.276260308e0	1.241006618e0	-5.106830097e0	1.066155788e1
4.798823042e0	-8.397523783e0	1.346916066e0	-3.945230129e0	9.375362891e0
4.808804042e0	-7.869592130e0	8.933250359e-1	-2.985555275e0	8.464162700e0
4.818785042e0	-7.569379706e0	2.918704936e-1	-2.093990544e0	7.859102616e0
4.828765042e0	-7.614106813e0	-4.702241292e-2	-1.361364243e0	7.734994911e0
4.838746042e0	-8.120027207e0	-2.689476175e-1	-1.007452160e0	8.186704741e0
4.848726042e0	-8.460836264e0	-6.376662757e-1	-1.241868498e0	8.575232122e0
4.858707042e0	-8.822570168e0	-8.058761251e-1	-2.312647465e0	9.156173818e0
4.868687042e0	-9.033833578e0	-6.595533541e-1	-3.837389054e0	9.837210707e0
4.878668042e0	-8.676935906e0	-2.005449519e-1	-4.654623688e0	9.848601762e0
4.888648042e0	-7.801270924e0	6.012055971e-1	-4.330094448e0	8.942650285e0
4.898629042e0	-6.870726314e0	1.189657028e0	-3.329917101e0	7.727257717e0
4.908609042e0	-6.451319568e0	1.180098950e0	-2.209452588e0	6.920537439e0
4.918590042e0	-6.560346166e0	1.018200293e0	-1.368977318e0	6.778567146e0
4.928570042e0	-6.943928776e0	8.984796488e-1	-7.367784083e-1	7.040472637e0
4.938551042e0	-7.595782224e0	5.174437943e-1	-1.664784157e-1	7.615206546e0
4.948532042e0	-8.718031307e0	2.322236314e-1	-1.099849570e-1	8.721817149e0
4.958512042e0	-9.665866719e0	8.503729977e-2	-4.624764588e-1	9.677297931e0
4.968493042e0	-1.029165386e1	1.533266390e-1	-7.268571451e-1	1.031842864e1
4.978473042e0	-1.078903440e1	4.606740546e-1	-1.060324146e0	1.085079588e1
4.988454042e0	-1.086391150e1	8.944493823e-1	-1.415559162e0	1.099219817e1
4.998434042e0	-1.055473413e1	1.162788999e0	-1.652093360e0	1.074634372e1
5.008415042e0	-9.934695382e0	1.109914967e0	-1.720500229e0	1.014348089e1
5.018395042e0	-9.349185612e0	1.009913253e0	-1.295574589e0	9.492402747e0
5.028376042e0	-9.220412382e0	9.008808079e-1	-4.022820050e-1	9.273048125e0
5.038356042e0	-9.417251880e0	6.694667235e-1	8.817797086e-1	9.482107051e0
5.048337042e0	-9.790466207e0	3.841839954e-1	2.331899131e0	1.007167213e1
5.058317042e0	-1.001660318e1	2.200035537e-1	3.029501779e0	1.046702545e1
5.068298042e0	-9.679731637e0	4.898681243e-2	2.647910146e0	1.003548865e1
5.078278042e0	-8.618574847e0	-9.636240631e-2	1.644147871e0	8.774527926e0
5.088259042e0	-7.002800882e0	-2.787239063e-1	3.235311198e-1	7.015809261e0
5.098240042e0	-5.389248274e0	-6.506240711e-1	-1.067391091e0	5.532326128e0
5.108220417e0	-4.311899375e0	-1.005315880e0	-2.097849706e0	4.899398905e0
5.118201417e0	-3.528602858e0	-1.029105277e0	-2.218085417e0	4.293017437e0
5.128181417e0	-2.372328826e0	-1.101128648e0	-8.505196166e-1	2.750238531e0
5.138162417e0	-1.450505923e0	-1.394463869e0	1.122514547e0	2.304026003e0
5.148142417e0	-8.397736037e-1	-1.375994562e0	2.792329356e0	3.224233858e0
5.158123417e0	9.260001540e-2	-1.246947682e0	4.141017713e0	4.325676940e0
5.168103417e0	2.339139445e0	-1.258100076e0	4.484285525e0	5.211833249e0
5.178084417e0	6.723441968e0	-6.360870890e-1	4.164351612e0	7.934173116e0
5.188064417e0	1.317051412e1	9.721159013e-1	3.610463584e0	1.369097874e1
5.198045417e0	2.014344976e1	2.952226439e0	2.307998637e0	2.048904749e1
5.208025417e0	2.569608035e1	3.892910705e0	8.811537641e-1	2.600422526e1
5.218006417e0	2.852973929e1	3.894802864e0	-2.498857310e-1	2.879545027e1
5.227986417e0	2.830597336e1	4.163338290e0	-1.472499055e0	2.864838158e1
5.237967417e0	2.612629041e1	4.455080144e0	-2.202868330e0	2.659480059e1
5.247948417e0	2.315924713e1	4.750890784e0	-1.791459114e0	2.370930232e1
5.257928417e0	2.071696806e1	4.929192270e0	-4.863041550e-1	2.130084960e1
5.267909417e0	1.940294902e1	4.881079041e0	1.762734083e0	2.008498431e1
5.277889417e0	1.885565431e1	4.273068600e0	4.796209629e0	1.991980024e1
5.287870417e0	1.818221528e1	3.361140063e0	7.610990832e0	1.999543439e1
5.297850417e0	1.672585279e1	2.612697337e0	9.336539254e0	1.933264865e1
5.307831417e0	1.428065947e1	1.665198871e0	9.495625620e0	1.723011979e1
5.317811417e0	1.089280377e1	3.830708317e-1	7.908132298e0	1.346619744e1
5.327792417e0	7.238268841e0	-3.179745108e-1	5.057726934e0	8.835963181e0
5.337772417e0	3.872657704e0	-5.987490356e-1	2.056924167e0	4.425710692e0
5.347753417e0	5.054836071e-1	-1.180812310e0	-1.518445891e-1	1.293401782e0
5.357733417e0	-2.766189671e0	-1.800810274e0	-1.675163550e0	3.701472120e0
5.367714417e0	-5.279884876e0	-2.000045669e0	-2.777725058e0	6.292306690e0
5.377695417e0	-7.017504290e0	-1.791995012e0	-3.535559875e0	8.059577918e0
5.387675417e0	-7.749119022e0	-1.571079310e0	-3.882350049e0	8.808505987e0
5.397656417e0	-7.730701463e0	-1.297500954e0	-3.993525499e0	8.797471213e0
5.407636417e0	-7.578534692e0	-1.089851708e0	-3.782546849e0	8.539884395e0
5.417617417e0	-7.641294027e0	-1.069198758e0	-3.542771538e0	8.490217345e0
5.427597417e0	-7.916226014e0	-6.216379613e-1	-3.513988034e0	8.683385282e0
5.437578417e0	-8.269574425e0	8.179081600e-2	-3.367969026e0	8.929488579e0
5.447558417e0	-8.581016427e0	5.251553947e-1	-3.162122769e0	9.160166566e0
5.457539417e0	-9.049966046e0	8.593749323e-1	-3.341439624e0	9.685330633e0
5.467519417e0	-9.486437305e0	1.286562568e0	-3.771372235e0	1.028936269e1
5.477500417e0	-9.777656127e0	1.530286210e0	-4.525618323e0	1.088235068e1
5.487480417e0	-9.792008117e0	1.592184251e0	-5.423534592e0	1.130633456e1
5.497461417e0	-9.675340962e0	1.643461701e0	-6.033326095e0	1.152016549e1
5.507442417e0	-9.572099599e0	1.633343386e0	-6.251002146e0	1.154850333e1
5.517422417e0	-9.494117623e0	1.503891294e0	-6.020187401e0	1.134207277e1
5.527403417e0	-9.382122978e0	1.314471913e0	-5.362932295e0	1.088637271e1
5.537383417e0	-9.335102009e0	1.009082072e0	-4.612278152e0	1.046114171e1
5.547364417e0	-9.054922730e0	7.827690983e-1	-3.796424338e0	9.849730497e0
5.557344417e0	-8.463832963e0	7.562165996e-1	-2.978163225e0	9.004320527e0
5.567325417e0	-7.818136632e0	7.101414174e-1	-2.404148497e0	8.210206528e0
5.577305417e0	-7.182118029e0	6.919217858e-1	-1.992490481e0	7.485425403e0
5.587286417e0	-6.670690143e0	6.579187649e-1	-1.482113924e0	6.864956356e0
5.597266417e0	-6.360607034e0	6.367202693e-1	-9.999653855e-1	6.470136422e0
5.607247417e0	-6.219390929e0	5.687601283e-1	-6.190084684e-1	6.275944797e0
5.617227417e0	-6.286716939e0	3.510238507e-1	-4.565546912e-1	6.313039664e0
5.627208417e0	-6.536199505e0	2.217430821e-1	-3.574663129e-1	6.549721836e0
5.637188417e0	-7.073032959e0	1.478924561e-1	-2.371390933e-1	7.078552279e0
5.647169417e0	-7.590952424e0	-1.100595821e-2	-1.092800751e-1	7.591746964e0
5.657150417e0	-7.686701750e0	-3.537276398e-1	-5.491149455e-2	7.695032313e0
5.667130417e0	-7.155275216e0	-5.225516661e-1	-6.163696200e-2	7.174595653e0
5.677111417e0	-6.227882840e0	-4.728316220e-1	1.127562448e-1	6.246823864e0
5.687091417e0	-5.050593331e0	-6.019910609e-1	3.664996764e-1	5.099530198e0
5.697072417e0	-3.759911692e0	-5.452656504e-1	9.568866089e-1	3.917892615e0
5.707052417e0	-2.853712549e0	-1.094425546e-1	1.817530095e0	3.385124611e0
5.717033417e0	-2.385097976e0	7.230082154e-3	2.664225340e0	3.575869305e0
5.727013417e0	-1.631991802e0	-1.711184737e-1	4.038757221e0	4.359385124e0
5.736994417e0	-1.858081412e-1	-3.226429278e-1	5.594881400e0	5.607256103e0
5.746974417e0	2.062033464e0	-3.332448799e-1	6.744567958e0	7.060611241e0
5.756955417e0	5.088441188e0	-7.269170791e-2	7.246832088e0	8.855173241e0
5.766935417e0	9.162940099e0	3.923283628e-1	7.112908630e0	1.160632853e1
5.776916417e0	1.405317939e1	1.089624032e0	6.473025602e0	1.551061546e1
5.786897417e0	1.847685063e1	1.705284312e0	5.559386462e0	1.937030670e1
5.796877417e0	2.180190022e1	1.856877763e0	4.642246009e0	2.236786302e1
5.806858417e0	2.427943799e1	1.829352872e0	3.391018458e0	2.458325949e1
5.816838417e0	2.626988633e1	2.546337579e0	2.188592353e0	2.648359303e1
5.826819417e0	2.758609692e1	3.452258394e0	1.112483064e0	2.782352331e1
5.836799417e0	2.823151258e1	3.985298467e0	2.769127312e-1	2.851276183e1
5.846780417e0	2.769287877e1	4.379052015e0	2.730450904e-1	2.803829853e1
5.856760417e0	2.555408890e1	4.808709222e0	1.040772080e0	2.602341927e1
5.866741417e0	2.178950646e1	4.691799992e0	1.704598726e0	2.235399820e1
5.876721417e0	1.725544680e1	4.361868803e0	2.155631014e0	1.792827624e1
5.886702417e0	1.230601966e1	4.173591090e0	2.176941484e0	1.317558563e1
5.896682417e0	7.485988471e0	3.754019161e0	1.945988160e0	8.597648118e0
5.906663417e0	3.407573680e0	3.286491877e0	1.380377927e0	4.931331510e0
5.916644417e0	2.229186648e-1	2.991856820e0	2.751559353e-1	3.012741401e0
5.926624417e0	-2.406281853e0	2.798101435e0	-7.857122943e-1	3.773182716e0
5.936605417e0	-4.845891082e0	2.405932775e0	-1.286973335e0	5.561247455e0
5.946585417e0	-7.536592029e0	1.330026968e0	-1.644552499e0	7.827754727e0
5.956566417e0	-1.008420752e1	-2.341946547e-1	-1.987273011e0	1.028082401e1
5.966546417e0	-1.173637455e1	-1.406460894e0	-1.849325207e0	1.196413907e1
5.976527417e0	-1.233813373e1	-2.237972967e0	-1.431320916e0	1.262088533e1
5.986507417e0	-1.229456613e1	-2.844014065e0	-1.024781261e0	1.266076415e1
5.996488417e0	-1.202205781e1	-2.951809240e0	-7.268580222e-1	1.240045864e1
6.006468417e0	-1.155979215e1	-2.848529870e0	-5.106814894e-1	1.191653106e1
6.016449417e0	-1.119852895e1	-2.551027338e0	-5.958581722e-1	1.150086249e1
6.026429417e0	-1.090416608e1	-1.978247249e0	-7.581324399e-1	1.110806305e1
6.036410417e0	-1.088702438e1	-1.421897543e0	-1.147504377e0	1.103928706e1
6.046390417e0	-1.128212776e1	-1.095551501e0	-2.073260410e0	1.152323950e1
6.056371417e0	-1.171885162e1	-8.045520231e-1	-3.257071027e0	1.218963900e1
6.066352417e0	-1.175717193e1	-4.019533914e-1	-4.569773864e0	1.262043943e1
6.076332417e0	-1.094870081e1	2.968192846e-2	-5.403747615e0	1.220964450e1
6.086313417e0	-9.574411004e0	3.872303217e-1	-5.514513760e0	1.105572953e1
6.096293417e0	-8.174722647e0	6.436309473e-1	-4.871655376e0	9.537996501e0
6.106274375e0	-6.975123671e0	7.097476074e-1	-3.567179278e0	7.866438832e0
6.116254375e0	-6.083701027e0	6.927621038e-1	-1.888681938e0	6.407687335e0
6.126235375e0	-5.845045751e0	5.451903675e-1	-5.296726611e-1	5.894263779e0
6.136215375e0	-6.090838723e0	4.067367062e-1	3.308699602e-1	6.113364543e0
6.146196375e0	-6.538789821e0	1.802709011e-1	6.154904911e-1	6.570167309e0
6.156176375e0	-7.128904858e0	-5.282396547e-2	4.437905118e-1	7.142900312e0
6.166157375e0	-7.438323138e0	-2.524216319e-1	7.439032406e-2	7.442976670e0
6.176137375e0	-7.383549346e0	-4.391764374e-1	-4.654953763e-1	7.411232207e0
6.186118375e0	-7.066338481e0	-5.231234507e-1	-1.182340042e0	7.183642923e0
6.196099375e0	-6.534831256e0	-4.343214942e-1	-1.786170308e0	6.788450418e0
6.206079375e0	-5.955652267e0	-3.522058654e-1	-2.024478259e0	6.300186911e0
6.216060375e0	-5.602013249e0	-4.000083151e-1	-1.907688313e0	5.931427635e0
6.226040375e0	-5.382015853e0	-6.341375542e-1	-1.501148950e0	5.623315148e0
6.236021375e0	-5.068957096e0	-9.123126993e-1	-9.578449675e-1	5.238712388e0
6.246001375e0	-4.954638183e0	-9.929981357e-1	-3.775015050e-1	5.067247005e0
6.255982375e0	-5.116119568e0	-9.641009036e-1	2.103793108e-1	5.210415477e0
6.265962375e0	-5.340960798e0	-9.883829284e-1	7.459450883e-1	5.482626846e0
6.275943375e0	-5.723340050e0	-9.471618122e-1	1.321689423e0	5.949840314e0
6.285923375e0	-6.158123803e0	-1.026328946e0	1.976748607e0	6.548539909e0
6.295904375e0	-5.987570463e0	-1.477239393e0	2.536285923e0	6.668281829e0
6.305884375e0	-4.976624883e0	-1.743938793e0	2.739015613e0	5.942249092e0
6.315865375e0	-3.417544352e0	-1.645513489e0	2.843441330e0	4.740515018e0
6.325846375e0	-1.632229784e0	-1.543006536e0	2.823469288e0	3.607911038e0
6.335826375e0	5.786720359e-1	-1.216138118e0	2.364898185e0	2.721506324e0
6.345807375e0	3.213562480e0	-2.236334869e-1	1.317654845e0	3.480403717e0
6.355787375e0	6.500230942e0	9.448798632e-1	-3.961321959e-1	6.580480300e0
6.365768375e0	1.091767081e1	1.600955659e0	-1.597381841e0	1.114944947e1
6.375748375e0	1.628317646e1	2.645419817e0	-1.936810663e0	1.660997644e1
6.385729375e0	2.146189866e1	4.059792286e0	-2.059813276e0	2.193941289e1
6.395709375e0	2.524982553e1	4.457079892e0	-1.839742498e0	2.570610634e1
6.405690375e0	2.795477088e1	4.756595328e0	-2.045888717e0	2.843026688e1
6.415670375e0	2.904032752e1	5.014490283e0	-2.092809699e0	2.954429873e1
6.425651375e0	2.877907392e1	4.989962967e0	-1.219276611e0	2.923390945e1
6.435631375e0	2.756731332e1	5.237682012e0	7.692959440e-1	2.807101517e1
6.445612375e0	2.517369478e1	4.965397060e0	3.948248169e0	2.596071533e1
6.455593375e0	2.185456024e1	4.153617294e0	7.361142231e0	2.343204547e1
6.465573375e0	1.856913723e1	3.755598201e0	1.031080700e1	2.156919369e1
6.475554375e0	1.528440420e1	3.263167334e0	1.201715083e1	1.971479614e1
6.485534375e0	1.200192468e1	2.835889651e0	1.170175202e1	1.700057253e1
6.495515375e0	9.264217967e0	2.691502893e0	9.951293288e0	1.385994807e1
6.505495375e0	6.853299272e0	2.243336325e0	7.441316328e0	1.036211646e1
6.515476375e0	4.334530438e0	2.302734242e0	4.738623911e0	6.822411280e0
6.525456375e0	8.173296511e-1	1.913429402e0	1.920730820e0	2.831686196e0
6.535437375e0	-3.578098369e0	1.099631469e0	-8.514966863e-1	3.838883159e0
6.545417375e0	-7.948440079e0	4.280847444e-1	-3.685965756e0	8.771961001e0
6.555398375e0	-1.118451200e1	2.100935282e-1	-6.019022051e0	1.270299470e1
6.565378375e0	-1.275847954e1	-6.262053676e-2	-7.411099087e0	1.475490126e1
6.575359375e0	-1.261635595e1	-5.581259434e-1	-7.626894089e0	1.475308291e1
6.585340375e0	-1.136593473e1	-7.807936896e-1	-6.868641196e0	1.330309524e1
6.595320375e0	-9.829641967e0	-8.097101444e-1	-5.285603453e0	1.118995512e1
6.605301375e0	-8.783772722e0	-1.016969746e0	-3.572152627e0	9.536727169e0
6.615281375e0	-8.438056097e0	-1.498355443e0	-2.401796454e0	8.900252015e0
6.625262375e0	-8.333151201e0	-1.951702936e0	-1.861559336e0	8.758764551e0
6.635242375e0	-8.366568038e0	-2.111303857e0	-2.070162555e0	8.873704848e0
6.645223375e0	-8.555141913e0	-2.003651062e0	-3.027895841e0	9.293719597e0
6.655203375e0	-8.821142862e0	-1.870350625e0	-4.204702663e0	9.949386782e0
6.665184375e0	-9.012971882e0	-1.625508994e0	-5.219121780e0	1.054111824e1
6.675164375e0	-9.270305504e0	-1.289524182e0	-5.777996898e0	1.099939475e1
6.685145375e0	-9.420619876e0	-9.869714105e-1	-5.654331211e0	1.103148462e1
6.695125375e0	-9.301952974e0	-8.389371595e-1	-4.857193165e0	1.052722519e1
6.705106375e0	-8.862754573e0	-1.099942833e0	-3.696085825e0	9.665368243e0
6.715087375e0	-8.384196809e0	-9.953206497e-1	-2.583583465e0	8.829514304e0
6.725067375e0	-8.069104391e0	-7.187985125e-1	-1.809944502e0	8.300784064e0
6.735048375e0	-7.979566562e0	-6.373175624e-1	-1.421744054e0	8.130252908e0
6.745028375e0	-8.191096605e0	-5.888643175e-1	-1.277327768e0	8.310980147e0
6.755009375e0	-8.543976070e0	-5.155393562e-1	-1.233373955e0	8.647919936e0
6.764989375e0	-8.904711853e0	-4.776906216e-1	-1.347849866e0	9.018801516e0
6.774970375e0	-9.234691283e0	-4.083449463e-1	-1.605853871e0	9.382165813e0
6.784950375e0	-9.428020113e0	-3.348264787e-1	-1.692219585e0	9.584533329e0
6.794931375e0	-9.617186310e0	-4.123357075e-1	-1.633461208e0	9.763630921e0
6.804911375e0	-9.937621329e0	-6.147136885e-1	-1.731591227e0	1.010606742e1
6.814892375e0	-1.004499258e1	-5.451841548e-1	-1.850350224e0	1.022853350e1
6.824872375e0	-9.859411311e0	-5.800282976e-1	-1.703407356e0	1.002227623e1
6.834853375e0	-9.573187766e0	-7.898161626e-1	-1.637615654e0	9.744306984e0
6.844834375e0	-9.333557174e0	-7.464941418e-1	-1.896531241e0	9.553500603e0
6.854814375e0	-9.260155322e0	-6.770736587e-1	-2.066460098e0	9.512053546e0
6.864795375e0	-9.139997964e0	-7.638548175e-1	-1.998961595e0	9.387165942e0
6.874775375e0	-8.756816474e0	-1.123688376e0	-1.792113125e0	9.008672476e0
6.884756375e0	-7.986717707e0	-1.224592607e0	-1.410956526e0	8.202321933e0
6.894736375e0	-6.329416232e0	-7.278198892e-1	-8.602490911e-1	6.428939269e0
6.904717375e0	-3.379754966e0	-3.098097147e-1	3.403573599e-1	3.410948376e0
6.914697375e0	5.393448329e-1	-4.762256017e-1	2.393677011e0	2.499474605e0
6.924678375e0	4.956619220e0	-7.761140898e-1	4.645279545e0	6.837327637e0
6.934658375e0	9.482391617e0	-9.765949416e-1	6.483427799e0	1.152841379e1
6.944639375e0	1.377966652e1	-1.269965246e0	7.294793290e0	1.564308251e1
6.954619375e0	1.783793239e1	-1.756709696e0	6.827193793e0	1.918041804e1
6.964600375e0	2.143229771e1	-1.435192942e0	5.485189973e0	2.216958441e1
6.974581375e0	2.464259218e1	-1.224309675e0	4.763419321e0	2.512859820e1
6.984561375e0	2.654748407e1	-1.180708961e0	4.149470741e0	2.689574486e1
6.994542375e0	2.656776689e1	-6.956359372e-3	2.631767153e0	2.669779924e1
7.004522375e0	2.512645162e1	1.900553833e0	7.463070309e-1	2.520927706e1
7.014503375e0	2.327952202e1	3.595027227e0	-4.178624958e-1	2.355918027e1
7.024483375e0	2.177502173e1	4.603310570e0	-7.501977682e-4	2.225628092e1
7.034464375e0	2.040447649e1	5.188584697e0	2.962661672e0	2.126126610e1
7.044444375e0	1.877813426e1	4.554721669e0	7.742018749e0	2.081592348e1
7.054425375e0	1.671991903e1	3.063736642e0	1.151596025e1	2.053191455e1
7.064405375e0	1.458120635e1	1.492604706e0	1.329232799e1	1.978700156e1
7.074386375e0	1.309522537e1	3.156549203e-1	1.274232486e1	1.827433742e1
7.084366375e0	1.247949251e1	-2.945043719e-1	1.010498150e1	1.606035857e1
7.094347375e0	1.162862908e1	-3.417829842e-1	6.269153073e0	1.321529834e1
7.104328375e0	9.394852951e0	-2.310886869e-1	2.173608863e0	9.645788690e0
7.114308000e0	5.768502190e0	1.987225941e-1	-1.177860782e0	5.890879748e0
7.124289000e0	8.868460286e-1	6.450999141e-1	-3.113009666e0	3.300527073e0
7.134269000e0	-4.319197869e0	9.419349130e-1	-3.976389941e0	5.945955649e0
7.144250000e0	-8.418516456e0	1.160297427e0	-3.721536708e0	9.277259559e0
7.154230000e0	-1.105951139e1	9.284282103e-1	-2.927571654e0	1.147804195e1
7.164211000e0	-1.178351247e1	3.981088106e-1	-2.078067991e0	1.197196823e1
7.174191000e0	-1.127599754e1	-7.854308970e-3	-1.527052700e0	1.137893106e1
7.184172000e0	-1.020535832e1	-1.735134932e-1	-1.474721582e0	1.031281965e1
7.194152000e0	-9.171014519e0	-1.637164834e-1	-2.021644406e0	9.392622451e0
7.204133000e0	-8.540211632e0	5.503370136e-2	-2.792751818e0	8.985416304e0
7.214113000e0	-8.736583353e0	3.833022353e-1	-3.465242429e0	9.406525096e0
7.224094000e0	-9.640879812e0	4.563734275e-1	-4.030503291e0	1.045943579e1
7.234075000e0	-1.057012166e1	4.817079511e-1	-4.621538680e0	1.154634723e1
7.244055000e0	-1.103647570e1	6.706659874e-1	-5.082615023e0	1.216908231e1
7.254036000e0	-1.090696455e1	7.690608128e-1	-5.148350590e0	1.208548071e1
7.264016000e0	-1.019463686e1	7.203866163e-1	-4.647611414e0	1.122719330e1
7.273997000e0	-9.295390643e0	7.853083248e-1	-3.917853465e0	1.011783436e1
7.283977000e0	-8.427849197e0	9.445220867e-1	-2.734517058e0	8.910575044e0
7.293958000e0	-8.181873792e0	8.060255945e-1	-1.853635482e0	8.427852663e0
7.303938000e0	-8.195607147e0	7.223615865e-1	-1.428082728e0	8.350401371e0
7.313919000e0	-8.295393975e0	7.934955961e-1	-1.416246209e0	8.452748062e0
7.323899000e0	-8.509763426e0	8.648821324e-1	-1.872665538e0	8.756196143e0
7.333880000e0	-8.626816497e0	1.030239710e0	-2.433089291e0	9.022376640e0
7.343861000e0	-8.517727919e0	1.355647128e0	-2.768562179e0	9.058388630e0
7.353841000e0	-8.376879019e0	1.533739868e0	-2.912656868e0	9.000446106e0
7.363822000e0	-8.245793214e0	1.548026955e0	-2.883201227e0	8.871434073e0
7.373802000e0	-8.092635341e0	1.386944350e0	-2.838045520e0	8.687281724e0
7.383783000e0	-7.997878287e0	1.162098735e0	-2.824646625e0	8.561259202e0
7.393763000e0	-7.815177941e0	9.674846873e-1	-2.893140324e0	8.389475181e0
7.403744000e0	-7.476785538e0	8.833102904e-1	-2.929408557e0	8.078613343e0
7.413724000e0	-7.232920977e0	7.988712338e-1	-2.693238932e0	7.759309058e0
7.423705000e0	-7.194867883e0	6.478200388e-1	-2.139801432e0	7.534224898e0
7.433685000e0	-7.336458210e0	5.152127892e-1	-1.404117622e0	7.487363326e0
7.443666000e0	-7.598986498e0	3.237147224e-1	-6.190382892e-1	7.631028464e0
7.453646000e0	-7.748308014e0	1.478768878e-1	-6.472955436e-2	7.749989327e0
7.463627000e0	-7.516015093e0	-7.534985214e-2	5.649755180e-2	7.516605115e0
7.473607000e0	-6.692403778e0	-5.963127567e-1	1.751676705e-1	6.721200856e0
7.483588000e0	-5.408881470e0	-1.229755698e0	5.952266729e-1	5.578762643e0
7.493569000e0	-3.785511972e0	-1.739628810e0	1.345482036e0	4.377982548e0
7.503549000e0	-1.911541336e0	-2.105205796e0	3.255930235e0	4.322842053e0
7.513530000e0	1.231563950e-1	-2.502712087e0	5.956746866e0	6.462319128e0
7.523510000e0	2.462453130e0	-2.606125359e0	8.501427051e0	9.226582613e0
7.533491000e0	5.273664608e0	-2.093316360e0	9.672310935e0	1.121370191e1
7.543471000e0	8.882153880e0	-1.220869685e0	9.127930480e0	1.279461977e1
7.553452000e0	1.276411509e1	-3.610047555e-1	7.090378139e0	1.460569822e1
7.563432000e0	1.615614336e1	-9.944562485e-2	4.470257470e0	1.676347397e1
7.573413000e0	1.843517401e1	-3.890833774e-1	1.631035198e0	1.851127501e1
7.583393000e0	2.016890620e1	-7.961080590e-1	-4.140138584e-1	2.018885764e1
7.593374000e0	2.284764667e1	-3.565439147e-1	-9.690584654e-1	2.287096754e1
7.603355000e0	2.638843045e1	7.119479147e-1	-3.350963277e-1	2.640015948e1
7.613335000e0	2.991464998e1	1.848173598e0	1.160443096e0	2.999414371e1
7.623316000e0	3.167160730e1	2.220570776e0	2.705737355e0	3.186444191e1
7.633296000e0	3.019348030e1	2.826248762e0	3.576039856e0	3.053558573e1
7.643277000e0	2.529148577e1	2.920557334e0	4.876193107e0	2.592231022e1
7.653257000e0	1.922016739e1	2.118652053e0	7.297768353e0	2.066787227e1
7.663238000e0	1.497539756e1	1.099289991e0	1.013868135e1	1.811805260e1
7.673218000e0	1.283670242e1	2.960234785e-1	1.219872559e1	1.771094196e1
7.683199000e0	1.184822477e1	-5.071725753e-1	1.288457943e1	1.751142602e1
7.693179000e0	1.104910920e1	-1.193810525e0	1.159279500e1	1.605929306e1
7.703160000e0	9.515524279e0	-1.139798332e0	8.505501391e0	1.281358250e1
7.713140000e0	6.285541649e0	-9.538533658e-1	4.713001704e0	7.913927920e0
7.723121000e0	1.481904302e0	-7.981425977e-1	7.048005706e-1	1.824778291e0
7.733102000e0	-3.873377497e0	-7.220191589e-1	-3.061780456e0	4.989876196e0
7.743082000e0	-8.676268154e0	-5.927787726e-1	-5.933867880e0	1.052804843e1
7.753063000e0	-1.232680768e1	-2.121273360e-1	-7.661493233e0	1.451529070e1
7.763043000e0	-1.461434954e1	-3.504089795e-1	-8.063108071e0	1.669478094e1
7.773024000e0	-1.522294996e1	-7.287358555e-1	-7.049490314e0	1.679180083e1
7.783004000e0	-1.446806156e1	-8.865896282e-1	-5.088109651e0	1.536228193e1
7.792985000e0	-1.359354146e1	-8.509979188e-1	-2.733344691e0	1.389171480e1
7.802965000e0	-1.318045672e1	-1.028280820e0	-1.078371139e0	1.326441424e1
7.812946000e0	-1.313150734e1	-1.008257907e0	-7.189196961e-1	1.318976553e1
7.822926000e0	-1.334452258e1	-5.017565918e-1	-1.467761203e0	1.343437254e1
7.832907000e0	-1.401029825e1	-1.579198462e-1	-2.776228171e0	1.428358633e1
7.842887000e0	-1.495383654e1	6.365132779e-2	-4.099998618e0	1.550584623e1
7.852868000e0	-1.532053064e1	3.105888927e-1	-4.929885750e0	1.609717049e1
7.862849000e0	-1.483423291e1	4.388806048e-1	-5.030771270e0	1.567021831e1
7.872829000e0	-1.359440217e1	4.748237318e-1	-4.498913797e0	1.432736728e1
7.882810000e0	-1.189776940e1	3.772433139e-1	-3.655446507e0	1.245236999e1
7.892790000e0	-1.015544882e1	2.130266012e-1	-2.910561519e0	1.056645113e1
7.902771000e0	-8.683687102e0	7.408626884e-2	-2.111659952e0	8.937058700e0
7.912751000e0	-7.884238236e0	-4.781673890e-2	-1.288118950e0	7.988914158e0
7.922732000e0	-7.861751014e0	-1.286679804e-1	-5.581950867e-1	7.882592607e0
7.932712000e0	-8.225874674e0	-1.543559682e-1	4.033643246e-2	8.227421647e0
7.942693000e0	-8.631546895e0	-1.889390329e-1	4.475739527e-1	8.645208048e0
7.952673000e0	-8.664619331e0	-1.868670354e-1	5.649302021e-1	8.685026976e0
7.962654000e0	-8.419331558e0	-2.157010811e-1	3.714031515e-1	8.430279423e0
7.972635000e0	-8.040044898e0	-1.741268296e-1	-3.191600338e-2	8.041993581e0
7.982615000e0	-7.694967374e0	-7.833248030e-2	-3.456514290e-1	7.703124935e0
7.992596000e0	-7.504475028e0	4.874509402e-2	-3.939073303e-1	7.514964039e0
8.002576000e0	-7.408040993e0	1.711263674e-1	-1.242100632e-1	7.411058206e0
8.012557000e0	-7.478998125e0	7.151380459e-2	3.604941474e-1	7.488022650e0
8.022537000e0	-7.692726721e0	4.615938216e-2	7.015021563e-1	7.724783515e0
8.032518000e0	-7.879775056e0	2.091110680e-1	8.802665953e-1	7.931547873e0
8.042498000e0	-8.124099208e0	1.498632601e-1	6.758129990e-1	8.153537278e0
8.052479000e0	-8.062885292e0	3.924038102e-2	3.454282115e-1	8.070376676e0
8.062459000e0	-7.487740881e0	3.462341040e-2	1.820249927e-1	7.490033070e0
8.072440000e0	-6.690375379e0	-2.385395014e-1	-2.117408350e-2	6.694659972e0
8.082420000e0	-5.616782146e0	-3.165059826e-1	-5.242458603e-1	5.650066498e0
8.092401000e0	-4.163416935e0	6.876319897e-4	-6.009186450e-1	4.206559671e0
8.102382000e0	-2.511852162e0	-4.751505911e-2	-6.710429867e-1	2.600376445e0
8.112362875e0	-1.636775994e-1	-4.901846597e-1	-6.698560019e-1	8.460368907e-1
8.122343875e0	3.076761022e0	-7.206114417e-1	-7.161782290e-1	3.240162109e0
8.132323875e0	7.626127519e0	-3.020493266e-1	-6.507028623e-1	7.659795620e0
8.142304875e0	1.215522698e1	3.709473610e-1	-7.703206685e-1	1.218525908e1
8.152284875e0	1.592422525e1	1.105400916e0	-6.202131410e-1	1.597458999e1
8.162265875e0	1.877644091e1	1.241609466e0	1.023845853e0	1.884528025e1
8.172245875e0	2.062679932e1	-4.383599102e-2	2.998377050e0	2.084363300e1
8.182226875e0	2.233844072e1	-1.699530944e0	4.453798727e0	2.284142427e1
8.192206875e0	2.559710804e1	-3.995553606e0	6.215675608e0	2.664227865e1
8.202187875e0	3.136232234e1	-5.283163995e0	8.098886599e0	3.281918720e1
8.212167875e0	3.556280770e1	-3.922101468e0	8.612602501e0	3.680044963e1
8.222148875e0	3.384495187e1	-2.321253690e0	7.988453745e0	3.485232244e1
8.232129875e0	2.708937829e1	-1.205673648e0	6.813125392e0	2.795901898e1
8.242109875e0	2.084873857e1	-3.382485982e-1	5.529480293e0	2.157219193e1
8.252090875e0	1.768188892e1	-2.846252818e-2	5.175150719e0	1.842368559e1
8.262070875e0	1.650124252e1	6.254971236e-1	5.610427977e0	1.744015922e1
8.272051875e0	1.549670023e1	1.601019686e0	5.325451058e0	1.646424644e1
8.282031875e0	1.340680361e1	2.068741682e0	4.079569032e0	1.416562596e1
8.292012875e0	1.053736088e1	2.043583744e0	2.078306850e0	1.093304936e1
8.301992875e0	7.287295990e0	2.385725382e0	5.931649446e-2	7.668108430e0
8.311973875e0	2.966215317e0	2.310084338e0	-1.555227216e0	4.068618273e0
8.321953875e0	-1.726723713e0	1.974259155e0	-2.475102997e0	3.606301268e0
8.331934875e0	-6.303845773e0	1.968787916e0	-2.118181060e0	6.935509238e0
8.341914875e0	-1.056161046e1	1.448673406e0	-1.219680361e0	1.073004614e1
8.351895875e0	-1.355095268e1	5.746366531e-1	-8.597438917e-1	1.359035266e1
8.361876875e0	-1.488947624e1	4.203121137e-2	-8.069745246e-1	1.491138750e1
8.371856875e0	-1.474962370e1	-6.646135345e-1	-7.443014359e-1	1.478333843e1
8.381837875e0	-1.378462379e1	-1.282585584e0	-6.209903821e-1	1.385808457e1
8.391817875e0	-1.256955834e1	-1.531610312e0	-4.668288338e-1	1.267113082e1
8.401798875e0	-1.152932582e1	-1.621761806e0	-6.167631376e-1	1.165915357e1
8.411778875e0	-1.063237346e1	-1.629165551e0	-1.551280931e0	1.086775130e1
8.421759875e0	-1.001218970e1	-1.313892161e0	-2.622761857e0	1.043307888e1
8.431739875e0	-9.862691599e0	-9.651057476e-1	-3.401297278e0	1.047725813e1
8.441720875e0	-9.951232477e0	-8.763567084e-1	-3.601019162e0	1.061896266e1
8.451700875e0	-1.011484342e1	-7.610423067e-1	-3.186679029e0	1.063222300e1
8.461681875e0	-1.015093711e1	-6.439114675e-1	-2.565041067e0	1.048978464e1
8.471662875e0	-9.878580823e0	-6.069745697e-1	-2.698071948e0	1.025838045e1
8.481642875e0	-9.073157857e0	-4.391208888e-1	-3.191906732e0	9.628254735e0
8.491623875e0	-8.185825925e0	-1.436491317e-1	-3.355413592e0	8.848004381e0
8.501603875e0	-7.825947343e0	-9.770054162e-2	-2.905306626e0	8.348401272e0
8.511584875e0	-7.889455706e0	-3.641508499e-1	-2.267195450e0	8.216829826e0
8.521564875e0	-8.026179981e0	-5.626190901e-1	-1.671650104e0	8.217695504e0
8.531545875e0	-8.268797330e0	-4.012520179e-1	-8.706441249e-1	8.324183663e0
8.541525875e0	-8.853952759e0	-3.980769798e-1	-1.587296855e-1	8.864318352e0
8.551506875e0	-9.427264652e0	-5.701093733e-1	2.478216639e-1	9.447738306e0
8.561486875e0	-9.719685076e0	-5.574352410e-1	1.736105570e-1	9.737204561e0
8.571467875e0	-9.545836830e0	-1.654048669e-1	-2.076048070e-1	9.549526654e0
8.581447875e0	-9.130394497e0	1.830301291e-1	-6.651558638e-1	9.156420481e0
8.591428875e0	-8.748989391e0	3.690473083e-1	-1.069037228e0	8.821782806e0
8.601409875e0	-8.646602890e0	3.796591276e-1	-1.519263917e0	8.787266096e0
8.611389875e0	-8.825624169e0	3.514691162e-1	-1.846128534e0	9.023489517e0
8.621370875e0	-9.392942666e0	3.664318487e-1	-2.064257160e0	9.624074077e0
8.631350875e0	-1.046551497e1	5.685543063e-1	-2.427588522e0	1.075841270e1
8.641331875e0	-1.182351210e1	6.974707934e-1	-2.729510087e0	1.215451065e1
8.651311875e0	-1.290986162e1	8.552356884e-1	-2.950164710e0	1.327024592e1
8.661292875e0	-1.264567389e1	1.208722386e0	-2.468076398e0	1.294084537e1
8.671272875e0	-1.096764228e1	1.178135894e0	-7.844995818e-1	1.105859941e1
8.681253875e0	-8.768337243e0	6.364434037e-1	1.060591364e0	8.855148347e0
8.691233875e0	-5.880091038e0	-2.333948287e-1	2.943277275e0	6.579728328e0
8.701214875e0	-5.663407259e0	2.215771674e0	4.383652897e0	7.496681840e0
8.711195875e0	-3.796103618e0	9.231379420e-1	4.614719657e0	6.046339707e0
8.721175875e0	-1.957550737e0	1.144219412e0	5.119180586e0	5.598861743e0
8.731156875e0	3.429753338e0	2.321822624e0	4.041091429e0	5.786578280e0
8.741136875e0	1.092599256e1	3.356132215e0	2.755785136e0	1.175735041e1
8.751117875e0	1.915064985e1	3.378947758e0	1.205587986e0	1.948379121e1
8.761097875e0	2.617236647e1	2.108564436e0	-3.153634366e-1	2.625906062e1
8.771078875e0	3.077264467e1	4.135326326e-1	-1.624599752e0	3.081827370e1
8.781058875e0	3.373890677e1	-8.915813962e-1	-1.245939329e0	3.377367484e1
8.791039875e0	3.523034905e1	-2.164238993e0	1.031974213e0	3.531184497e1
8.801019875e0	3.382502924e1	-3.602242399e0	4.947481191e0	3.437421015e1
8.811000875e0	3.062196193e1	-4.685964179e0	8.651916840e0	3.216393131e1
8.820980875e0	2.697179312e1	-4.003469274e0	1.012704656e1	2.908715287e1
8.830961875e0	2.381927849e1	-2.626930337e0	9.976704118e0	2.595753101e1
8.840942875e0	2.263279190e1	-2.056368096e0	1.034372098e1	2.496927077e1
8.850922875e0	2.232683985e1	-2.570832442e0	1.044690212e1	2.478375922e1
8.860903875e0	2.180499690e1	-3.439964331e0	8.876891386e0	2.379265528e1
8.870883875e0	2.060049387e1	-3.471074442e0	5.554550230e0	2.161670034e1
8.880864875e0	1.763177360e1	-2.897937380e0	1.483700859e0	1.792983128e1
8.890844875e0	1.296501489e1	-1.618898425e0	-2.033845499e0	1.322304696e1
8.900825875e0	7.464377747e0	-2.957463205e-2	-4.095730151e0	8.514271271e0
8.910805875e0	1.676812465e0	1.512767660e0	-4.493168615e0	5.028790136e0
8.920786875e0	-3.652425250e0	2.631753705e0	-3.053905718e0	5.439915248e0
8.930766875e0	-8.282179268e0	2.910068598e0	-8.486371055e-1	8.819477173e0
8.940747875e0	-1.167043433e1	3.024375817e0	8.244784570e-1	1.208410739e1
8.950728875e0	-1.416008520e1	2.973401838e0	1.528575900e0	1.454942183e1
8.960708875e0	-1.574812465e1	2.637824576e0	1.417327360e0	1.603029524e1
8.970689875e0	-1.647063586e1	2.328584052e0	8.503477085e-1	1.665614723e1
8.980669875e0	-1.652162708e1	1.758301016e0	-2.851733851e-1	1.661737367e1
8.990650875e0	-1.579074735e1	1.190834292e0	-1.619094014e0	1.591814228e1
9.000630875e0	-1.470082401e1	7.653250998e-1	-2.767298011e0	1.497858095e1
9.010611875e0	-1.373164919e1	2.842270133e-1	-4.059059923e0	1.432183444e1
9.020591875e0	-1.253193268e1	9.803880304e-2	-5.107974397e0	1.353330524e1
9.030572875e0	-1.115920057e1	-1.350173257e-2	-5.691521841e0	1.252682564e1
9.040552875e0	-9.929897157e0	4.602665037e-2	-5.951749835e0	1.157705930e1
9.050533875e0	-8.924471934e0	1.976052643e-1	-5.881310767e0	1.068995152e1
9.060514875e0	-8.241793134e0	1.707776541e-1	-5.403980334e0	9.856942859e0
9.070494875e0	-8.239158964e0	-1.845976945e-1	-5.033945138e0	9.657039939e0
9.080475875e0	-7.884696658e0	-5.105893958e-1	-4.807024055e0	9.248601147e0
9.090455875e0	-7.266775771e0	1.384857479e-1	-4.342957445e0	8.466787336e0
9.100436875e0	-7.405518504e0	5.219593066e-1	-3.913553715e0	8.392261228e0
9.110416875e0	-7.358705696e0	4.335732333e-2	-3.616347053e0	8.199414332e0
9.120397875e0	-7.502947150e0	5.314081147e-1	-3.265604453e0	8.200047742e0
9.130377875e0	-7.706468847e0	6.651082820e-1	-2.792727552e0	8.223828688e0
9.140358875e0	-7.865556382e0	5.312423462e-1	-2.286380603e0	8.208333076e0
9.150338875e0	-7.814931189e0	6.955102220e-1	-1.808485914e0	8.051552972e0
9.160319875e0	-7.610934114e0	8.925166583e-1	-1.662138000e0	7.841275840e0
9.170300875e0	-7.401354702e0	9.837177274e-1	-1.802473514e0	7.680928509e0
9.180280875e0	-7.386892784e0	1.236881407e0	-1.761002430e0	7.693971027e0
9.190261875e0	-7.661213152e0	1.417162176e0	-1.635664146e0	7.961025863e0
9.200241875e0	-7.866667938e0	1.004884136e0	-1.217752534e0	8.023538982e0
9.210222875e0	-7.768783793e0	4.413975388e-1	-7.045818847e-1	7.813147192e0
9.220202875e0	-7.423827306e0	-1.603563809e-1	-3.985123050e-1	7.436244892e0
9.230183875e0	-6.960086387e0	-8.261224017e-1	1.158669636e-1	7.009900562e0
9.240163875e0	-6.660417754e0	-7.327847600e-1	7.563888001e-1	6.743164107e0
9.250144875e0	-6.739782597e0	-7.072523081e-1	1.296058446e0	6.899611784e0
9.260124875e0	-7.171930425e0	-6.680288932e-1	1.665513890e0	7.393022734e0
9.270105875e0	-7.610442948e0	-7.292562577e-1	1.775205317e0	7.848694826e0
9.280085875e0	-7.954181460e0	-1.198324283e0	1.729681819e0	8.227805478e0
9.290066875e0	-8.217515495e0	-1.794967151e0	1.559853241e0	8.554683519e0
9.300047875e0	-8.281455967e0	-1.995840936e0	1.452643665e0	8.641531554e0
9.310027875e0	-7.729544299e0	-2.268143430e0	1.223525490e0	8.147842924e0
9.320008875e0	-6.583291810e0	-2.596864538e0	9.179853755e-1	7.136254875e0
9.329988875e0	-4.638659327e0	-2.015747782e0	6.698722279e-1	5.101874976e0
9.339969875e0	-2.034069740e0	-1.542388777e0	8.303122240e-1	2.684366077e0
9.349949875e0	9.040789425e-1	-2.740402865e-1	1.413450363e0	1.700087863e0
9.359930875e0	4.614943605e0	2.318435917e0	2.159003103e0	5.597690951e0
9.369910875e0	1.009729709e1	5.829668158e0	2.785061267e0	1.198736859e1
9.379891875e0	1.583007455e1	6.415033502e0	3.044227699e0	1.734967543e1
9.389871875e0	2.105956110e1	3.428940575e0	4.143661824e0	2.173551657e1
9.399852875e0	2.589974823e1	4.193900078e-1	5.238670192e0	2.642757105e1
9.409833875e0	3.105570371e1	8.467963289e-1	6.121164722e0	3.166452991e1
9.419813875e0	3.475647198e1	2.712456098e0	7.754466301e0	3.571416400e1
9.429794875e0	3.365342515e1	2.444240808e0	9.966691346e0	3.518326696e1
9.439774875e0	2.895126740e1	1.802426152e0	1.145950655e1	3.118885882e1
9.449755875e0	2.422552199e1	2.856360168e0	1.111608320e1	2.680675316e1
9.459735875e0	2.055561532e1	4.205461923e0	1.009838234e1	2.328511449e1
9.469716875e0	1.710430212e1	4.168899869e0	9.339990866e0	1.992918229e1
9.479696875e0	1.475499028e1	2.789204020e0	8.810579867e0	1.741021869e1
9.489677875e0	1.454295270e1	1.649852415e0	8.444975107e0	1.689784278e1
9.499657875e0	1.468061369e1	6.899702775e-1	7.840891657e0	1.665761266e1
9.509638875e0	1.538595279e1	-2.967632975e0	6.564508799e0	1.698903071e1
9.519618875e0	1.741299067e1	-4.685616854e0	5.592565902e0	1.887972571e1
9.529599875e0	1.697314674e1	-1.765476427e0	3.809498420e0	1.748476181e1
9.539580875e0	1.155353446e1	3.287977070e-1	1.085594935e0	1.160908191e1
9.549560875e0	3.133425804e0	5.597077614e-1	-5.699634853e-1	3.233649397e0
9.559541875e0	-4.749428980e0	3.343133489e-1	-7.242352536e-1	4.815948272e0
9.569521875e0	-1.030269809e1	1.892922412e-1	-1.408696577e-1	1.030539973e1
9.579502875e0	-1.350022808e1	-1.388231322e-1	6.154767501e-1	1.351496363e1
9.589482875e0	-1.478654419e1	-1.006732661e-1	1.431730514e0	1.485603839e1
9.599463875e0	-1.492181368e1	-4.024483948e-1	1.676316913e0	1.502106942e1
9.609443875e0	-1.469213388e1	-9.600987768e-1	1.466592783e0	1.479633340e1
9.619424875e0	-1.410866596e1	-1.326849591e0	1.036617780e0	1.420878465e1
9.629404875e0	-1.298192621e1	-1.778297617e0	8.396016955e-2	1.310342703e1
9.639385875e0	-1.171872181e1	-1.898397964e0	-1.161733577e0	1.192820106e1
9.649366875e0	-1.092639953e1	-1.475615036e0	-2.393512411e0	1.128239992e1
9.659346875e0	-1.053420573e1	-9.045683545e-1	-3.605446089e0	1.117080909e1
9.669327875e0	-1.045974377e1	-5.589645803e-1	-4.582552077e0	1.143321760e1
9.679307875e0	-1.064009880e1	-2.506002608e-1	-5.246739349e0	1.186603459e1
9.689288875e0	-1.104194987e1	-1.979153860e-1	-5.721775920e0	1.243794786e1
9.699268875e0	-1.148128626e1	-2.213609666e-1	-5.745139055e0	1.284038775e1
9.709249875e0	-1.163916108e1	-2.358404267e-1	-5.322504646e0	1.280057605e1
9.719229875e0	-1.152994094e1	-2.496109119e-1	-4.717377468e0	1.246015626e1
9.729210875e0	-1.126585613e1	-1.147781937e-1	-3.996390635e0	1.195423885e1
9.739190875e0	-1.107497494e1	1.411427409e-1	-3.430238657e0	1.159489234e1
9.749171875e0	-1.088037726e1	2.602330004e-1	-3.049669118e0	1.130269049e1
9.759152875e0	-1.052054663e1	3.101641290e-1	-2.688676349e0	1.086310654e1
9.769132875e0	-1.022788881e1	4.467138638e-1	-2.551302742e0	1.055075393e1
9.779113875e0	-1.016679827e1	7.606540516e-1	-2.533796178e0	1.050535600e1
9.789093875e0	-1.013661845e1	8.774229482e-1	-2.376405505e0	1.044835909e1
9.799074875e0	-9.923873355e0	8.139393624e-1	-2.133860368e0	1.018327647e1
9.809054875e0	-9.722254343e0	6.320346761e-1	-1.849523720e0	9.916775450e0
9.819035875e0	-9.475702987e0	4.656196296e-1	-1.652392738e0	9.629961085e0
9.829015875e0	-9.126191518e0	6.604310212e-1	-1.609732622e0	9.290574787e0
9.838996875e0	-8.711194158e0	9.246456465e-1	-1.535978183e0	8.893767605e0
9.848976875e0	-8.324859264e0	9.620333281e-1	-1.428441455e0	8.501131389e0
9.858957875e0	-8.089878379e0	7.718194561e-1	-1.235732283e0	8.220028694e0
9.868938875e0	-8.005893651e0	7.303224975e-1	-1.024360846e0	8.104135934e0
9.878918875e0	-8.213151133e0	8.896594164e-1	-7.959284033e-1	8.299448622e0
9.888899875e0	-8.529656823e0	7.901450685e-1	-5.005871487e-1	8.580790304e0
9.898879875e0	-8.660401150e0	6.273913291e-1	-1.179093960e-1	8.683897200e0
9.908860875e0	-8.683968353e0	4.664268743e-1	2.004720810e-1	8.698795861e0
9.918840875e0	-8.684040858e0	4.399301800e-1	4.770636539e-1	8.708254355e0
9.928821875e0	-8.659669663e0	4.700515267e-1	1.010809339e0	8.731126081e0
9.938801875e0	-8.408496668e0	3.218547231e-1	1.753510831e0	8.595417786e0
9.948782875e0	-7.599113967e0	1.629241857e-1	2.399124277e0	7.970500278e0
9.958762875e0	-6.502369269e0	7.448417187e-2	3.189795887e0	7.243007097e0
9.968743875e0	-5.142069511e0	-2.626946416e-1	4.242408725e0	6.671425569e0
9.978724875e0	-3.954702911e0	-5.633965139e-1	5.313878834e0	6.647886807e0
9.988704875e0	-2.568262006e0	-1.151101950e0	5.968131979e0	6.598454724e0
9.998685875e0	-3.587500691e-1	-4.979641608e-1	5.760775094e0	5.793375493e0
1.000866588e1	2.855548575e0	1.817092723e0	4.153920472e0	5.358268276e0
1.001864688e1	8.265514119e0	3.945832977e0	2.127018249e0	9.402793636e0
1.002862687e1	1.743089835e1	6.113518319e0	9.697487292e-1	1.849734403e1
1.003860788e1	2.796568412e1	7.012423060e0	1.963788546e0	2.889827038e1
1.004858788e1	3.551410039e1	6.339751770e0	4.321712172e0	3.633346908e1
1.005856887e1	3.780352856e1	5.429537929e0	6.324412769e0	3.871155965e1
1.006854888e1	3.582962784e1	4.403056882e0	7.646586927e0	3.690012782e1
1.007852987e1	3.159891472e1	3.428545303e0	8.846189411e0	3.299244461e1
1.008851088e1	2.783938426e1	2.074491980e0	1.086411733e1	2.995603242e1
1.009849088e1	2.617107073e1	4.856387419e-1	1.319373224e1	2.931271667e1
1.010847187e1	2.598222671e1	-8.159324589e-1	1.429297604e1	2.966531670e1
1.011845075e1	2.743459088e1	-2.390266037e0	1.369764178e1	3.075704048e1
1.012843175e1	3.121045378e1	-2.768330629e0	1.193686856e1	3.352976156e1
1.013841175e1	3.291759283e1	-7.662002087e-1	8.970386610e0	3.412657053e1
1.014839275e1	2.782419554e1	6.953792444e-1	6.222230337e0	2.851991515e1
1.015837275e1	1.807600061e1	8.500629491e-1	4.145069541e0	1.856464399e1
1.016835375e1	7.996741004e0	6.018410432e-1	1.706641451e0	8.198945320e0
1.017833375e1	4.011102229e-1	3.887045509e-1	-5.396833867e-1	7.766844898e-1
1.018831475e1	-3.568834040e0	4.764135897e-1	-1.852075737e0	4.048917244e0
1.019829475e1	-4.870226609e0	3.680655608e-1	-2.185940641e0	5.350973366e0
1.020827575e1	-4.768438278e0	-1.484187055e-1	-1.826796470e0	5.108543537e0
1.021825675e1	-4.045979117e0	-4.715276929e-1	-1.109204238e0	4.221684429e0
1.022823675e1	-3.850639429e0	-1.128056538e-1	-8.697446769e-1	3.949253718e0
1.023821775e1	-4.776054862e0	3.617290428e-2	-1.051598639e0	4.890589762e0
1.024819775e1	-6.798490396e0	-7.247333268e-2	-1.658442560e0	6.998225187e0
1.025817875e1	-8.972589841e0	-2.106968329e-1	-2.224901516e0	9.246726359e0
1.026815875e1	-1.045928301e1	-3.273171920e-1	-2.538681527e0	1.076794509e1
1.027813975e1	-1.139324240e1	-3.389124764e-1	-2.729602766e0	1.172056164e1
1.028811975e1	-1.207713625e1	-5.742705078e-1	-3.093848633e0	1.248034078e1
1.029810075e1	-1.236474675e1	-7.981884983e-1	-3.557449511e0	1.289106334e1
1.030808075e1	-1.235895099e1	-1.008350512e0	-4.256552847e0	1.311025105e1
1.031806175e1	-1.225652882e1	-1.141863568e0	-4.935059366e0	1.326201954e1
1.032804275e1	-1.240954695e1	-1.081937867e0	-5.223807739e0	1.350761312e1
1.033802275e1	-1.288178680e1	-1.177956969e0	-5.133009835e0	1.391674544e1
1.034800375e1	-1.328969090e1	-1.386099720e0	-4.761290934e0	1.418474702e1
1.035798375e1	-1.320453907e1	-1.394119176e0	-3.994333000e0	1.386571730e1
1.036796475e1	-1.250867480e1	-1.219188975e0	-2.585763892e0	1.283119409e1
1.037794475e1	-1.161522492e1	-1.321339321e0	-1.152926793e0	1.174685608e1
1.038792575e1	-1.090069985e1	-1.346355903e0	-2.065518697e-1	1.098547200e1
1.039790575e1	-1.040454840e1	-1.257402211e0	3.517876433e-1	1.048615479e1
1.040788675e1	-1.027976531e1	-1.340082863e0	5.364359893e-1	1.038061464e1
1.041786675e1	-1.053207149e1	-1.702626606e0	2.190491237e-1	1.067105664e1
1.042784775e1	-1.068399970e1	-1.881264453e0	-3.664841813e-1	1.085455278e1
1.043782875e1	-1.081132048e1	-1.726565545e0	-1.065375556e0	1.100003201e1
1.044780875e1	-1.108134022e1	-1.693514159e0	-1.690372158e0	1.133673010e1
1.045778975e1	-1.160478998e1	-1.802673489e0	-2.201674329e0	1.194856276e1
1.046776975e1	-1.195684031e1	-1.834088240e0	-2.358196398e0	1.232440668e1
1.047775075e1	-1.211614887e1	-1.962195180e0	-2.343914282e0	1.249580760e1
1.048773075e1	-1.178640801e1	-2.014753024e0	-2.072685775e0	1.213567756e1
1.049771175e1	-1.100352313e1	-1.929156073e0	-1.483781843e0	1.126946197e1
1.050769175e1	-1.018433875e1	-1.938184466e0	-8.253070074e-1	1.039992531e1
1.051767275e1	-9.655956273e0	-1.967470246e0	-4.352690721e-1	9.863969276e0
1.052765275e1	-9.756748238e0	-1.895753561e0	-5.626221599e-1	9.955127394e0
1.053763375e1	-1.045013680e1	-1.950213066e0	-1.245380920e0	1.070325482e1
1.054761475e1	-1.083009355e1	-2.038429131e0	-2.018337221e0	1.120356214e1
1.055759475e1	-1.115315923e1	-2.059807283e0	-2.561430119e0	1.162741120e1
1.056757575e1	-1.162481669e1	-2.202481537e0	-2.914152294e0	1.218521939e1
1.057755575e1	-1.159905620e1	-2.583202519e0	-2.615572413e0	1.216767270e1
1.058753675e1	-1.116708262e1	-3.263428119e0	-1.923517749e0	1.179209981e1
1.059751675e1	-9.977238554e0	-3.766846490e0	-9.179913689e-1	1.070407071e1
1.060749775e1	-8.076382420e0	-3.683436543e0	4.254447265e-1	8.886881398e0
1.061747775e1	-5.984315318e0	-3.319451170e0	2.253810443e0	7.204890520e0
1.062745875e1	-2.979753960e0	-3.157900495e0	5.023935875e0	6.640120547e0
1.063743875e1	1.052387720e0	-3.192425672e0	8.496684959e0	9.137437107e0
1.064741975e1	5.555393983e0	-2.508923585e0	1.102761483e1	1.260021384e1
1.065740075e1	9.984335904e0	-3.127289736e-1	1.094272028e1	1.481647360e1
1.066738075e1	1.491176933e1	2.822964381e0	8.800540198e0	1.754364558e1
1.067736175e1	2.022447112e1	5.473290889e0	7.159793360e0	2.214156242e1
1.068734175e1	2.508840262e1	6.841335284e0	5.891286702e0	2.666344076e1
1.069732275e1	2.993972518e1	7.695156239e0	4.474279769e0	3.123494442e1
1.070730275e1	3.506803502e1	9.114929781e0	3.725620696e0	3.642429512e1
1.071728375e1	3.903687474e1	1.052753756e1	3.233326946e0	4.056058481e1
1.072726375e1	4.063874754e1	1.095697579e1	3.484743478e0	4.223395029e1
1.073724475e1	4.023640765e1	1.080660528e1	4.375908552e0	4.189152413e1
1.074722475e1	3.883705667e1	1.019218337e1	6.342812787e0	4.065007807e1
1.075720575e1	3.652619027e1	8.271465415e0	8.748844965e0	3.845935522e1
1.076718675e1	3.329508907e1	5.819794550e0	1.029842494e1	3.533398535e1
1.077716675e1	2.974486087e1	3.641989725e0	1.103623246e1	3.193460919e1
1.078714775e1	2.554680094e1	1.726023801e0	1.118680762e1	2.794213415e1
1.079712775e1	2.044728746e1	7.084726220e-1	1.021284158e1	2.286691127e1
1.080710875e1	1.487831273e1	7.909180704e-1	8.442166690e0	1.712483342e1
1.081708875e1	9.293978541e0	1.722351457e0	6.273965331e0	1.134491836e1
1.082706975e1	3.763326466e0	2.446411879e0	4.017911604e0	6.024215371e0
1.083704975e1	-2.046986824e0	2.255581857e0	1.484320956e0	3.388364394e0
1.084703075e1	-7.690909406e0	1.596178484e0	-9.475184923e-1	7.911742193e0
1.085701075e1	-1.288321702e1	3.362976381e-1	-2.831290231e0	1.319494530e1
1.086699175e1	-1.671682235e1	-1.546229521e0	-3.928372314e0	1.724166709e1
1.087697275e1	-1.812354783e1	-2.997098849e0	-4.550998455e0	1.892504093e1
1.088695275e1	-1.746357260e1	-3.392537857e0	-5.161058929e0	1.852355825e1
1.089693375e1	-1.557086631e1	-3.262682307e0	-5.705116618e0	1.690104521e1
1.090691375e1	-1.321588500e1	-2.878826048e0	-6.116200436e0	1.484436471e1
1.091689475e1	-1.144254495e1	-2.515649637e0	-6.426446682e0	1.336261744e1
1.092687475e1	-1.104554240e1	-2.576567684e0	-6.677425550e0	1.316171417e1
1.093685575e1	-1.159186880e1	-2.870233565e0	-6.926318132e0	1.380519996e1
1.094683575e1	-1.209250624e1	-2.747992259e0	-7.079874201e0	1.427952336e1
1.095681675e1	-1.248385220e1	-2.260150579e0	-7.090493914e0	1.453375210e1
1.096679675e1	-1.289447525e1	-1.908377700e0	-6.926466066e0	1.476093932e1
1.097677775e1	-1.306929648e1	-1.527130468e0	-6.597964228e0	1.471977479e1
1.098675875e1	-1.269047175e1	-1.056886860e0	-5.717292275e0	1.395895820e1
1.099673875e1	-1.197257868e1	-8.464897156e-1	-4.795017382e0	1.292483565e1
1.100671975e1	-1.104287139e1	-8.384375149e-1	-3.991890618e0	1.177213560e1
1.101669975e1	-9.913251303e0	-7.222264427e-1	-3.101749098e0	1.041225287e1
1.102668075e1	-8.946489624e0	-6.877240697e-1	-2.180084801e0	9.233927157e0
1.103666075e1	-8.294548468e0	-7.117938405e-1	-1.308731116e0	8.427274879e0
1.104664175e1	-7.952483429e0	-8.545082948e-1	-5.567215884e-1	8.017612864e0
1.105662175e1	-7.867027541e0	-8.902318588e-1	5.605433285e-3	7.917238567e0
1.106660275e1	-7.934420210e0	-7.686343315e-1	4.574016604e-1	7.984675265e0
1.107658275e1	-8.058196410e0	-5.640230066e-1	7.902650826e-1	8.116475235e0
1.108656375e1	-8.253955343e0	-4.838880855e-1	8.597827756e-1	8.312710322e0
1.109654475e1	-8.386545635e0	-4.379470968e-1	6.853135550e-1	8.425888679e0
1.110652475e1	-8.466816797e0	-4.276472265e-1	4.572639585e-2	8.477733171e0
1.111650687e1	-8.576083131e0	-4.198321304e-1	-8.642944872e-1	8.629743093e0
1.112648688e1	-8.712906808e0	-3.891891755e-1	-1.858403886e0	8.917391898e0
1.113646788e1	-8.855941982e0	-4.344150862e-1	-2.938523489e0	9.340842850e0
1.114644787e1	-9.132319400e0	-4.653041723e-1	-4.197683372e0	1.006162568e1
1.115642888e1	-9.361967626e0	-4.826654327e-1	-5.519004421e0	1.087836447e1
1.116640888e1	-9.162682822e0	-3.253510657e-1	-6.297314433e0	1.112280445e1
1.117638987e1	-8.835787214e0	-6.307702158e-3	-6.262355100e0	1.082997077e1
1.118636988e1	-8.328076403e0	9.491114566e-2	-5.218355795e0	9.828382466e0
1.119635087e1	-8.079866191e0	3.599812735e-2	-3.804193241e0	8.930700966e0
1.120633188e1	-8.300306221e0	8.451507032e-2	-2.108457432e0	8.564334119e0
1.121631188e1	-8.939604528e0	6.220268011e-2	-2.665798241e-1	8.943794670e0
1.122629287e1	-9.975483220e0	-7.382694483e-2	1.011450194e0	1.002690119e1
1.123627288e1	-1.112033296e1	-2.442615501e-1	1.325595217e0	1.120172628e1
1.124625388e1	-1.197643316e1	-3.037610624e-1	8.560287170e-1	1.201082875e1
1.125623387e1	-1.238375722e1	-4.742147077e-1	-6.433399022e-4	1.239283353e1
1.126621488e1	-1.225401803e1	-6.548808441e-1	-7.727389307e-1	1.229581035e1
1.127619487e1	-1.153473449e1	-4.398752162e-1	-1.221899672e0	1.160761081e1
1.128617588e1	-1.048242980e1	-3.609219443e-2	-1.168703019e0	1.054744063e1
1.129615588e1	-9.537605120e0	1.903104973e-1	-7.331601512e-1	9.567635722e0
1.130613687e1	-8.618271376e0	-5.885080028e-2	-2.505502671e-2	8.618508728e0
1.131611788e1	-7.173679327e0	-4.774827166e-1	8.791363285e-1	7.243103307e0
1.132609788e1	-5.275980690e0	-4.238380578e-1	1.971969970e0	5.648387071e0
1.133607887e1	-2.745961229e0	-4.005664319e-2	3.351636876e0	4.333056352e0
1.134605888e1	5.581436312e-1	-1.338404274e-1	4.620616574e0	4.656128767e0
1.135603987e1	4.843983720e0	-7.607326236e-1	5.164401197e0	7.121371506e0
1.136601988e1	1.016083294e1	-8.925464791e-1	4.663303002e0	1.121541618e1
1.137600088e1	1.678227608e1	-1.650519875e-1	3.365094827e0	1.711712288e1
1.138598087e1	2.363097008e1	1.621689008e0	2.321037050e0	2.379999654e1
1.139596188e1	2.753541091e1	3.432992111e0	1.953522590e0	2.781727052e1
1.140594188e1	2.823627455e1	3.287575074e0	2.569356312e0	2.854289653e1
1.141592287e1	2.889805306e1	2.944705165e0	3.769061123e0	2.929120314e1
1.142590388e1	3.226873666e1	3.884809388e0	5.276391749e0	3.292724434e1
1.143588387e1	3.578647539e1	5.182441027e0	7.824277378e0	3.699660569e1
1.144586488e1	3.556692414e1	5.057404168e0	1.058721892e1	3.745227141e1
1.145584488e1	3.229919364e1	3.649131221e0	1.262928064e1	3.487194858e1
1.146582587e1	2.935655897e1	1.847419015e0	1.392839513e1	3.254567103e1
1.147580588e1	2.858900199e1	5.114156804e-1	1.457455690e1	3.209377338e1
1.148578688e1	2.895864893e1	-4.309982657e-2	1.386611176e1	3.210723066e1
1.149576687e1	2.822261312e1	3.139481181e-1	1.214843719e1	3.072782096e1
1.150574788e1	2.517983670e1	9.758631626e-1	1.035509966e1	2.724343176e1
1.151572887e1	2.041476758e1	1.420714067e0	8.618539764e0	2.220496322e1
1.152570888e1	1.535550868e1	1.927628488e0	6.858886871e0	1.692783883e1
1.153568988e1	1.048878806e1	2.477634549e0	5.340322866e0	1.202798388e1
1.154566987e1	3.974707405e0	2.300198159e0	2.913022904e0	5.438282170e0
1.155565088e1	-3.123736968e0	1.306157757e0	1.302081370e-1	3.388323315e0
1.156563088e1	-8.672538216e0	-4.564524380e-1	-1.944466130e0	8.899562712e0
1.157561187e1	-1.110511383e1	-1.992759892e0	-2.775583223e0	1.161888581e1
1.158559188e1	-1.143736782e1	-1.838211112e0	-2.232920388e0	1.179738684e1
1.159557287e1	-1.135314804e1	-1.309271107e0	-1.075639173e0	1.147890068e1
1.160555288e1	-1.147479117e1	-1.372631536e0	-1.988240433e-1	1.155830787e1
1.161553388e1	-1.196861076e1	-1.678468104e0	-2.272973523e-1	1.208786841e1
1.162551487e1	-1.236850885e1	-1.656339316e0	-1.125222977e0	1.252954899e1
1.163549488e1	-1.219712228e1	-1.457689812e0	-2.215003642e0	1.248202278e1
1.164547588e1	-1.161100791e1	-8.944725519e-1	-3.353619959e0	1.211867784e1
1.165545587e1	-1.098569965e1	-9.928223172e-2	-4.444275952e0	1.185103550e1
1.166543688e1	-1.085758599e1	3.665233576e-1	-5.488310047e0	1.217140337e1
1.167541687e1	-1.119057790e1	6.297544813e-1	-6.232406831e0	1.282452804e1
1.168539788e1	-1.174764331e1	7.613083550e-1	-6.797501632e0	1.359384942e1
1.169537788e1	-1.208377518e1	8.954294488e-1	-7.088015864e0	1.403778420e1
1.170535887e1	-1.202009081e1	1.029545280e0	-6.993289801e0	1.394448453e1
1.171533888e1	-1.158284070e1	1.085455187e0	-6.577907109e0	1.336447805e1
1.172531988e1	-1.087017972e1	9.828099471e-1	-5.673148136e0	1.230086714e1
1.173530087e1	-1.015202352e1	9.431927222e-1	-4.360113468e0	1.108890362e1
1.174528088e1	-9.331804764e0	8.384103253e-1	-2.978515520e0	9.831432588e0
1.175526187e1	-8.424643754e0	7.087208363e-1	-1.707702428e0	8.625146676e0
1.176524188e1	-8.010924010e0	4.714183134e-1	-9.446668053e-1	8.080193939e0
1.177522288e1	-8.121777279e0	2.581294280e-1	-4.758078182e-1	8.139796683e0
1.178520287e1	-8.330978376e0	8.771143248e-2	-5.038653901e-1	8.346662466e0
1.179518388e1	-8.476582232e0	-8.275595376e-2	-1.060864721e0	8.543110021e0
1.180516388e1	-8.503739040e0	-2.576569730e-1	-1.881106286e0	8.713123759e0
1.181514487e1	-8.489026276e0	-3.803605011e-1	-2.922231099e0	8.985971056e0
1.182512488e1	-8.376275001e0	-3.894008812e-1	-3.692766945e0	9.162431100e0
1.183510587e1	-8.250127755e0	-3.568093783e-1	-3.969617404e0	9.162411432e0
1.184508688e1	-8.238126345e0	-3.296815136e-1	-3.823083841e0	9.087980284e0
1.185506688e1	-8.264507228e0	-4.191105840e-1	-2.950801180e0	8.785497198e0
1.186504787e1	-8.138360567e0	-5.914008397e-1	-1.774047860e0	8.350443909e0
1.187502788e1	-7.866490182e0	-7.531710774e-1	-9.830558226e-1	7.963374486e0
1.188500888e1	-7.441633832e0	-7.676917604e-1	-3.557203344e-1	7.489579540e0
1.189498887e1	-7.138912368e0	-8.540042648e-1	-5.327836722e-2	7.190009156e0
1.190496988e1	-6.992135561e0	-9.618962109e-1	1.329727006e-1	7.059241160e0
1.191494987e1	-6.996158445e0	-1.075824238e0	3.069539711e-1	7.085044214e0
1.192493088e1	-7.073946878e0	-1.065101321e0	3.442428347e-1	7.161959815e0
1.193491088e1	-7.023925703e0	-1.036899323e0	5.555357730e-1	7.121749257e0
1.194489187e1	-7.171418794e0	-1.205936773e0	9.791007659e-1	7.337722353e0
1.195487288e1	-7.506414549e0	-1.481854600e0	1.373023299e0	7.773502777e0
1.196485288e1	-7.717556337e0	-1.730486104e0	1.547508892e0	8.059158873e0
1.197483387e1	-7.879489712e0	-1.859162270e0	1.800938620e0	8.293745980e0
1.198481388e1	-7.848417023e0	-1.869394020e0	2.202463996e0	8.363201028e0
1.199479487e1	-6.981021173e0	-1.479900753e0	2.731707763e0	7.641138015e0
1.200477488e1	-5.291786883e0	-9.184441627e-1	3.207253042e0	6.255639070e0
1.201475588e1	-3.080481606e0	-5.872285590e-1	3.350689042e0	4.589261527e0
1.202473587e1	-7.625903571e-1	-3.206022495e-1	2.686358221e0	2.810845130e0
1.203471688e1	1.875829466e0	-1.716480853e-1	1.365099445e0	2.326305170e0
1.204469788e1	5.365244869e0	-2.712192973e-1	-2.786759591e-1	5.379318981e0
1.205467787e1	9.986638538e0	1.243688151e-1	-1.674066612e0	1.012674261e1
1.206465888e1	1.544137855e1	9.980679640e-1	-2.266311205e0	1.563868529e1
1.207463887e1	2.099516221e1	2.167470310e0	-1.129933787e0	2.113697032e1
1.208461988e1	2.495863419e1	3.260426159e0	1.112024642e0	2.519524555e1
1.209459988e1	2.632468176e1	4.191423928e0	3.762534753e0	2.692050468e1
1.210458087e1	2.635668006e1	4.887322405e0	6.365050918e0	2.755130446e1
1.211456088e1	2.726842705e1	5.989409412e0	8.461386487e0	2.917250760e1
1.212454188e1	2.949062393e1	7.156275675e0	9.414853352e0	3.177339524e1
1.213452187e1	3.195556213e1	8.065165122e0	9.418678601e0	3.427705276e1
1.214450288e1	3.284390855e1	8.924129287e0	8.585466743e0	3.510089246e1
1.215448387e1	3.116838423e1	9.202839160e0	7.606324754e0	3.337688722e1
1.216446388e1	2.763886687e1	8.814237885e0	7.355248822e0	2.992820470e1
1.217444488e1	2.427020875e1	7.657041748e0	8.259913656e0	2.675629822e1
1.218442487e1	2.137692458e1	5.964654640e0	9.440457140e0	2.411788217e1
1.219440588e1	1.894300586e1	4.028473138e0	9.707876624e0	2.166353931e1
1.220438588e1	1.715500918e1	2.396032854e0	8.783361079e0	1.942119320e1
1.221436687e1	1.496262491e1	1.673442129e0	6.620963082e0	1.644742243e1
1.222434688e1	1.120017318e1	1.492152424e0	3.993795640e0	1.198418966e1
1.223432787e1	6.001414915e0	1.353756139e0	1.687346224e0	6.379402319e0
1.224430888e1	9.595573246e-2	1.036475546e0	-2.645017236e-2	1.041243810e0
1.225428888e1	-5.758387091e0	5.105958277e-1	-1.217679736e0	5.907831576e0
1.226426987e1	-1.110469166e1	-2.461255328e-1	-2.183485103e0	1.131999831e1
1.227424988e1	-1.499731059e1	-8.962043510e-1	-3.012160107e0	1.532304198e1
1.228423088e1	-1.680370378e1	-1.433905385e0	-4.043548429e0	1.734274573e1
1.229421087e1	-1.654933938e1	-1.756867425e0	-5.140352769e0	1.741810677e1
1.230419188e1	-1.490049005e1	-1.738472523e0	-6.065841292e0	1.618151171e1
1.231417187e1	-1.298997315e1	-1.531693635e0	-6.657275460e0	1.467667552e1
1.232415288e1	-1.164718580e1	-1.467813097e0	-6.866905743e0	1.360021349e1
1.233413288e1	-1.099839746e1	-1.315345779e0	-6.636665779e0	1.291279265e1
1.234411387e1	-1.090541036e1	-9.908993507e-1	-5.946316602e0	1.246067967e1
1.235409488e1	-1.113370203e1	-6.558757478e-1	-4.944199734e0	1.219977889e1
1.236407488e1	-1.143387236e1	-5.906506785e-1	-3.829243298e0	1.207250635e1
1.237405587e1	-1.175681057e1	-6.967410609e-1	-2.944229786e0	1.213987364e1
1.238403588e1	-1.199930630e1	-9.746527889e-1	-2.498788898e0	1.229541564e1
1.239401687e1	-1.184165601e1	-1.141034433e0	-2.246047094e0	1.210667189e1
1.240399688e1	-1.111710764e1	-1.099779403e0	-2.095132797e0	1.136614175e1
1.241397788e1	-1.004154272e1	-8.618234539e-1	-1.935381603e0	1.026260308e1
1.242395787e1	-9.173267452e0	-5.608979987e-1	-1.931526242e0	9.391178623e0
1.243393888e1	-8.824734807e0	-4.972808406e-1	-2.065369885e0	9.076837853e0
1.244391888e1	-8.842607406e0	-5.654032418e-1	-2.164281385e0	9.121156751e0
1.245389987e1	-9.165181922e0	-7.237174096e-1	-2.161276208e0	9.444333825e0
1.246388088e1	-9.553220109e0	-9.282291126e-1	-2.142420400e0	9.834408417e0
1.247386087e1	-9.901222411e0	-1.125769034e0	-2.161897183e0	1.019683091e1
1.248384188e1	-1.024847218e1	-1.107862886e0	-2.082839026e0	1.051649944e1
1.249382188e1	-1.035888749e1	-1.048035930e0	-1.857972069e0	1.057624648e1
1.250380287e1	-1.014990332e1	-1.121726123e0	-1.619785447e0	1.033936709e1
1.251378288e1	-9.633488932e0	-1.240817168e0	-1.435142072e0	9.818521732e0
1.252376388e1	-8.995195761e0	-1.246092234e0	-1.375569177e0	9.184687431e0
1.253374387e1	-8.503320379e0	-1.135441571e0	-1.376909359e0	8.688588172e0
1.254372488e1	-8.362293724e0	-1.013619511e0	-1.510999462e0	8.557949533e0
1.255370587e1	-8.546236019e0	-9.065086068e-1	-1.541352943e0	8.731304418e0
1.256368588e1	-8.975484797e0	-8.580649368e-1	-1.484842235e0	9.137853098e0
1.257366688e1	-9.516433522e0	-7.403037677e-1	-1.386846994e0	9.645408297e0
1.258364687e1	-1.026450641e1	-5.730943769e-1	-1.352407186e0	1.036906622e1
1.259362788e1	-1.096303117e1	-5.765953973e-1	-1.341716722e0	1.105986973e1
1.260360788e1	-1.122331295e1	-7.203477323e-1	-1.305714245e0	1.132194966e1
1.261358887e1	-1.143046460e1	-1.246973994e0	-1.484317155e0	1.159369064e1
1.262356888e1	-1.143855364e1	-1.685027510e0	-1.790401061e0	1.169980184e1
1.263354987e1	-1.078002150e1	-1.565790796e0	-1.763041354e0	1.103489371e1
1.264352988e1	-9.694114618e0	-9.019132800e-1	-8.681767461e-1	9.774611841e0
1.265351088e1	-8.784528183e0	-5.061379105e-2	4.997621065e-1	8.798878299e0
1.266349187e1	-7.855154185e0	5.659882557e-1	1.609266014e0	8.038253982e0
1.267347188e1	-6.623703672e0	1.308854493e0	2.043154559e0	7.054149911e0
1.268345288e1	-3.734179265e0	2.531550263e0	2.387130468e0	5.104040888e0
1.269343287e1	9.613793170e-1	3.595662820e0	2.475007395e0	4.469754234e0
1.270341388e1	7.309323036e0	3.707588760e0	2.037451477e0	8.445331620e0
1.271339387e1	1.462959323e1	2.807000313e0	1.555096531e0	1.497740211e1
1.272337488e1	2.100640758e1	1.615442428e0	1.187453724e0	2.110186863e1
1.273335488e1	2.555984023e1	8.223962635e-1	2.104693580e0	2.565953045e1
1.274333587e1	2.685451200e1	-1.289755440e-1	4.292570819e0	2.719572786e1
1.275331588e1	2.548926667e1	-8.290280293e-1	7.219271822e0	2.650486538e1
1.276329688e1	2.275782408e1	-1.111607590e0	9.283624291e0	2.460365640e1
1.277327787e1	2.112500782e1	-9.633086058e-1	9.358096769e0	2.312504906e1
1.278325788e1	2.348240403e1	-6.798502091e-1	7.908579025e0	2.478772110e1
1.279323887e1	2.881947584e1	5.241594677e-1	5.981023335e0	2.943823315e1
1.280321888e1	3.262297268e1	2.447160469e0	4.621861154e0	3.303949971e1
1.281319988e1	3.155519626e1	3.095058129e0	3.927662754e0	3.194896446e1
1.282317987e1	2.704406470e1	2.942723836e0	3.652446885e0	2.744779458e1
1.283316088e1	2.263375552e1	2.626063779e0	4.441806965e0	2.321449437e1
1.284314088e1	1.977961729e1	2.540754365e0	6.316917808e0	2.091870320e1
1.285312187e1	1.769693614e1	2.730630999e0	8.830906543e0	1.996554043e1
1.286310288e1	1.490766225e1	2.310783519e0	1.042537618e1	1.833757297e1
1.287308287e1	1.137399687e1	1.490181035e0	1.028317891e1	1.540559031e1
1.288306388e1	7.727363287e0	3.352032586e-1	8.187190665e0	1.126297454e1
1.289304388e1	4.939513190e0	-5.467556671e-1	5.146528598e0	7.154333577e0
1.290302487e1	2.709288077e0	-8.901646889e-1	2.187897997e0	3.594375147e0
1.291300488e1	3.970452386e-1	-1.108446512e0	-3.357550165e-1	1.224348815e0
1.292298588e1	-2.056560470e0	-7.872802252e-1	-2.490089995e0	3.324123840e0
1.293296587e1	-4.505600088e0	-2.813294256e-1	-4.415893275e0	6.315036960e0
1.294294688e1	-6.877882136e0	1.086114460e-1	-6.131773911e0	9.214972079e0
1.295292687e1	-9.234882486e0	6.872114881e-1	-7.259510021e0	1.176672426e1
1.296290788e1	-1.153075371e1	1.127558940e0	-7.581467071e0	1.384587712e1
1.297288888e1	-1.374135322e1	1.216001877e0	-7.407094914e0	1.565785758e1
1.298286887e1	-1.512792803e1	1.222243488e0	-6.836476833e0	1.664588541e1
1.299284988e1	-1.518303921e1	1.433461874e0	-5.032568119e0	1.605945934e1
1.300282988e1	-1.463844007e1	1.295848238e0	-2.306671611e0	1.487561374e1
1.301281087e1	-1.423088095e1	9.649651220e-1	1.013123667e-1	1.426391932e1
1.302279088e1	-1.434912802e1	5.170590475e-1	1.194979675e0	1.440808112e1
1.303277187e1	-1.437102935e1	1.601412034e-1	1.175166093e0	1.441988714e1
1.304275188e1	-1.409245163e1	1.467844087e-1	1.329153979e-1	1.409384281e1
1.305273288e1	-1.332018998e1	4.968259272e-1	-1.650017599e0	1.343118964e1
1.306271387e1	-1.227774252e1	8.361188015e-1	-3.392453072e0	1.276521813e1
1.307269388e1	-1.147806912e1	9.427752310e-1	-4.965509911e0	1.254157823e1
1.308267488e1	-1.087589128e1	9.536449125e-1	-6.040566702e0	1.247729521e1
1.309265487e1	-1.044316224e1	9.893614599e-1	-6.548765756e0	1.236627699e1
1.310263588e1	-1.013307270e1	1.003087506e0	-6.507176850e0	1.208423342e1
1.311261587e1	-9.901794269e0	9.890863484e-1	-5.910341023e0	1.157393419e1
1.312259575e1	-9.680803431e0	8.343702648e-1	-5.030556092e0	1.094169198e1
1.313257575e1	-9.306328445e0	7.062269989e-1	-4.035402673e0	1.016813554e1
1.314255675e1	-8.732823594e0	6.555577324e-1	-2.949438194e0	9.240733170e0
1.315253675e1	-8.458817806e0	6.110699961e-1	-2.008739601e0	8.715505722e0
1.316251775e1	-8.659762049e0	4.584772557e-1	-1.508545386e0	8.802124137e0
1.317249875e1	-8.859475454e0	3.357778937e-1	-1.431051359e0	8.980587960e0
1.318247875e1	-8.686564516e0	5.696428386e-1	-1.469749402e0	8.828423379e0
1.319245975e1	-8.397586933e0	9.497126600e-1	-1.486814209e0	8.580911194e0
1.320243975e1	-8.378539628e0	1.033550842e0	-1.450332553e0	8.565723446e0
1.321242075e1	-8.402460587e0	9.001121183e-1	-1.362757635e0	8.559711100e0
1.322240075e1	-8.271519794e0	8.617998458e-1	-1.216155659e0	8.404747067e0
1.323238175e1	-8.096669335e0	9.170209504e-1	-9.855882517e-1	8.207823459e0
1.324236175e1	-8.022421975e0	9.093958157e-1	-6.170204151e-1	8.097343348e0
1.325234275e1	-8.294875912e0	7.242901444e-1	-2.217267099e-1	8.329389254e0
1.326232375e1	-8.710005419e0	4.410282871e-1	1.050487375e-1	8.721796580e0
1.327230375e1	-8.974742201e0	-9.098556262e-2	2.680641398e-1	8.979205663e0
1.328228475e1	-8.846737880e0	-5.578845630e-1	2.339842281e-1	8.867398430e0
1.329226475e1	-8.338430067e0	-7.033647868e-1	1.477483222e-1	8.369346903e0
1.330224575e1	-7.501387113e0	-8.130123594e-1	1.371484897e-1	7.546562623e0
1.331222575e1	-6.388205307e0	-1.268154071e0	5.358783111e-1	6.534871641e0
1.332220675e1	-5.159428141e0	-1.657525716e0	1.352708610e0	5.585419485e0
1.333218675e1	-4.021758195e0	-1.984360513e0	2.628487450e0	5.198189291e0
1.334216775e1	-2.818014713e0	-2.574458300e0	3.988755048e0	5.520797886e0
1.335214775e1	-1.006588234e0	-3.183395232e0	5.209865638e0	6.187885345e0
1.336212875e1	1.576550843e0	-3.687117366e0	5.571474996e0	6.864523338e0
1.337210975e1	5.669909363e0	-3.725511645e0	4.674201335e0	8.238656888e0
1.338208975e1	1.199428354e1	-3.582826720e0	3.570957457e0	1.301734313e1
1.339207075e1	2.072152889e1	-2.767396829e0	3.802265414e0	2.124846976e1
1.340205075e1	2.966931016e1	-1.609296420e0	5.826089662e0	3.027872391e1
1.341203175e1	3.566625898e1	-1.626921974e0	8.999606316e0	3.682012790e1
1.342201175e1	3.802408788e1	-2.158781494e0	1.098747604e1	3.963856993e1
1.343199275e1	3.773230012e1	-1.216927199e0	1.154545010e1	3.947790271e1
1.344197275e1	3.588472733e1	1.197593381e0	1.203937025e1	3.786943782e1
1.345195375e1	3.233820860e1	3.298343306e0	1.339556877e1	3.515793035e1
1.346193475e1	2.715770183e1	3.728903030e0	1.495200870e1	3.122511891e1
1.347191475e1	2.229086076e1	3.851913537e0	1.504015665e1	2.716479382e1
1.348189575e1	1.862210248e1	4.280171506e0	1.418046041e1	2.379470585e1
1.349187575e1	1.652676796e1	3.869047049e0	1.315651121e1	2.147550631e1
1.350185675e1	1.551083646e1	3.265881903e0	1.160551153e1	1.964535390e1
1.351183675e1	1.463751387e1	2.770293247e0	9.891930016e0	1.788243877e1
1.352181775e1	1.280701377e1	2.207207842e0	7.705560774e0	1.510850870e1
1.353179775e1	1.004237888e1	1.791880114e0	4.654890613e0	1.121285933e1
1.354177875e1	6.771312538e0	1.651476772e0	1.370270137e0	7.103216825e0
1.355175975e1	2.458865279e0	1.839121816e0	-1.628591354e0	3.475729752e0
1.356173975e1	-2.796171854e0	2.001335272e0	-3.812281987e0	5.133947200e0
1.357172075e1	-8.267803888e0	2.062197770e0	-5.201078442e0	9.983008452e0
1.358170075e1	-1.299743770e1	1.869283800e0	-5.837194694e0	1.437012355e1
1.359168175e1	-1.618643545e1	1.583738825e0	-5.961895924e0	1.732204157e1
1.360166175e1	-1.743229935e1	1.346363212e0	-5.485753645e0	1.832460770e1
1.361164275e1	-1.695779546e1	1.045945258e0	-4.742132825e0	1.763940623e1
1.362162275e1	-1.534758921e1	6.620600554e-1	-4.522295058e0	1.601368074e1
1.363160375e1	-1.317725011e1	7.174673939e-1	-4.832360040e0	1.405369644e1
1.364158475e1	-1.110452677e1	8.073558361e-1	-5.280716350e0	1.232267436e1
1.365156475e1	-9.451298463e0	7.367173049e-1	-5.824371166e0	1.112623452e1
1.366154575e1	-8.332543091e0	7.544231124e-1	-6.679949208e0	1.070617345e1
1.367152575e1	-7.880292535e0	7.854086776e-1	-7.718167371e0	1.105829936e1
1.368150675e1	-8.158110123e0	6.635223710e-1	-8.591255486e0	1.186611535e1
1.369148675e1	-8.785744988e0	5.373135833e-1	-8.836812816e0	1.247266137e1
1.370146775e1	-9.395997251e0	4.503418053e-1	-8.343013115e0	1.257352138e1
1.371144775e1	-9.961276824e0	4.642271883e-1	-7.085151898e0	1.223282144e1
1.372142875e1	-1.040081670e1	3.622613952e-1	-5.337187589e0	1.169588786e1
1.373140875e1	-1.055987266e1	2.663801417e-1	-3.589191121e0	1.115635074e1
1.374138975e1	-1.047659311e1	1.842961974e-2	-2.228705422e0	1.071104433e1
1.375137075e1	-1.000473801e1	-1.596490871e-1	-1.524482849e0	1.012147807e1
1.376135075e1	-9.100705844e0	-1.341242366e-1	-1.213697197e0	9.182259910e0
1.377133175e1	-8.369312721e0	-2.640970963e-1	-1.257367712e0	8.467355920e0
1.378131175e1	-8.034578336e0	-4.975965902e-1	-1.629873356e0	8.213314713e0
1.379129275e1	-7.772464031e0	-5.802744654e-1	-1.908134748e0	8.024269050e0
1.380127275e1	-7.555562736e0	-5.808317050e-1	-2.053411160e0	7.851139479e0
1.381125375e1	-7.381532056e0	-7.360504299e-1	-2.134752946e0	7.719193991e0
1.382123375e1	-7.329908744e0	-9.916836816e-1	-2.311146485e0	7.749348152e0
1.383121475e1	-7.242693429e0	-1.132076791e0	-2.510980343e0	7.748756561e0
1.384119575e1	-6.929609529e0	-1.178793413e0	-2.502362716e0	7.461290860e0
1.385117575e1	-6.864161645e0	-1.408740139e0	-2.525513305e0	7.448454962e0
1.386115675e1	-7.125210003e0	-1.785450515e0	-2.692452481e0	7.823410477e0
1.387113675e1	-7.563363506e0	-2.069590990e0	-2.911495904e0	8.364477437e0
1.388111775e1	-8.096789203e0	-2.084945778e0	-3.220616561e0	8.959763687e0
1.389109775e1	-8.545200477e0	-1.930695937e0	-3.376506838e0	9.388761176e0
1.390107875e1	-8.758960648e0	-1.712244253e0	-3.532657317e0	9.598481116e0
1.391105875e1	-8.817555011e0	-1.390238671e0	-3.734514896e0	9.676189407e0
1.392103975e1	-8.667693797e0	-1.077658948e0	-3.798005133e0	9.524447887e0
1.393102075e1	-8.359412216e0	-9.864770284e-1	-3.563755733e0	9.140747478e0
1.394100075e1	-7.877282388e0	-9.912392932e-1	-2.975013623e0	8.478492744e0
1.395098175e1	-7.082228875e0	-1.101346311e0	-2.304696714e0	7.528781872e0
1.396096175e1	-5.861134365e0	-1.443959088e0	-1.732955675e0	6.280210925e0
1.397094275e1	-3.815101807e0	-9.436014426e-1	-9.209317875e-1	4.036520882e0
1.398092275e1	-1.691218835e0	7.352556472e-1	1.134236168e0	2.165020484e0
1.399090375e1	6.192867959e-1	1.137027483e0	2.902517212e0	3.178199773e0
1.400088375e1	3.421559635e0	1.808209633e0	3.461576225e0	5.192225185e0
1.401086475e1	7.880258621e0	3.494326187e0	2.925360821e0	9.103105370e0
1.402084475e1	1.482927330e1	5.699868157e0	2.230881171e0	1.604283873e1
1.403082575e1	2.313932216e1	7.190676599e0	3.176340274e0	2.443815045e1
1.404080675e1	2.991009851e1	7.325330958e0	5.286816165e0	3.124459780e1
1.405078675e1	3.307277325e1	6.675505909e0	7.483254313e0	3.455965574e1
1.406076775e1	3.237585063e1	5.252339813e0	9.096649046e0	3.403721201e1
1.407074775e1	2.975032685e1	4.088306818e0	1.049675899e1	3.181160400e1
1.408072875e1	2.734087405e1	4.268526483e0	1.219668608e1	3.024074839e1
1.409070875e1	2.593057475e1	4.766981737e0	1.430353845e1	2.999516684e1
1.410068975e1	2.519310754e1	4.386604571e0	1.639069506e1	3.037416421e1
1.411066975e1	2.450860441e1	3.655548541e0	1.776295238e1	3.048864054e1
1.412065175e1	2.314888352e1	2.971451207e0	1.802292192e1	2.948772703e1
1.413063275e1	2.090394565e1	2.024610991e0	1.679747767e1	2.689292192e1
1.414061275e1	1.828005908e1	1.012821659e0	1.381512637e1	2.293565095e1
1.415059375e1	1.611428782e1	4.955157124e-1	9.828799968e0	1.888176678e1
1.416057375e1	1.363396560e1	1.954078075e-1	5.315175161e0	1.463469471e1
1.417055475e1	9.951755219e0	-6.322769701e-2	9.855844510e-1	1.000064030e1
1.418053475e1	5.119688709e0	-1.213662699e-1	-2.646865541e0	5.764706362e0
1.419051575e1	-1.965839750e-1	-2.876357938e-1	-5.169756078e0	5.181482173e0
1.420049575e1	-5.111878583e0	-1.854228097e-1	-5.650715293e0	7.622090762e0
1.421047675e1	-9.504253771e0	-5.642814535e-1	-4.198877374e0	1.040575920e1
1.422045775e1	-1.244585231e1	-1.153371181e0	-1.552405350e0	1.259521604e1
1.423043775e1	-1.352527639e1	-1.850723715e0	1.015481557e0	1.368902781e1
1.424041875e1	-1.302032020e1	-2.243004496e0	3.042493707e0	1.355789715e1
1.425039875e1	-1.210322418e1	-2.847797798e0	3.964622712e0	1.305052571e1
1.426037975e1	-1.118841794e1	-2.596497041e0	3.826952943e0	1.210652971e1
1.427035975e1	-1.044312248e1	-1.712314127e0	1.878486733e0	1.074800164e1
1.428034075e1	-1.001054663e1	-8.086691938e-1	-6.713438259e-1	1.006556965e1
1.429032075e1	-9.676465382e0	7.219319623e-2	-3.139621514e0	1.017331890e1
1.430030175e1	-9.943653316e0	5.097202072e-1	-5.609635094e0	1.142821342e1
1.431028275e1	-1.061740342e1	6.340571550e-1	-7.754585584e0	1.316301187e1
1.432026275e1	-1.144355301e1	8.572135091e-1	-8.878142105e0	1.450900161e1
1.433024375e1	-1.247178237e1	8.503526786e-1	-8.935672860e0	1.536602436e1
1.434022375e1	-1.341021371e1	3.140007065e-1	-8.068726076e0	1.565365033e1
1.435020475e1	-1.387933231e1	1.122893447e-1	-6.303352268e0	1.524403897e1
1.436018475e1	-1.399573517e1	4.287155128e-1	-4.515990590e0	1.471253109e1
1.437016575e1	-1.405111883e1	5.682768559e-1	-3.153232663e0	1.441179223e1
1.438014575e1	-1.405891083e1	5.390665054e-1	-2.384404642e0	1.426986166e1
1.439012675e1	-1.397171832e1	4.508638886e-1	-2.109943356e0	1.413732832e1
1.440010675e1	-1.360588376e1	3.423050675e-1	-2.136903113e0	1.377692276e1
1.441008775e1	-1.305741377e1	3.026928127e-1	-2.308879520e0	1.326343100e1
1.442006875e1	-1.252739056e1	2.443773615e-1	-2.604298396e0	1.279756245e1
1.443004875e1	-1.195650117e1	1.183692978e-1	-2.948459662e0	1.231524851e1
1.444002975e1	-1.139467029e1	6.298910321e-2	-3.195736950e0	1.183449252e1
1.445000975e1	-1.090476249e1	-1.607291227e-1	-3.253759748e0	1.138097673e1
1.445999075e1	-1.062333951e1	-4.764416564e-1	-3.208596439e0	1.110753934e1
1.446997075e1	-1.041983185e1	-8.588738260e-1	-3.124352972e0	1.091201821e1
1.447995175e1	-1.003091132e1	-1.329408917e0	-3.017151582e0	1.055886895e1
1.448993175e1	-9.426696303e0	-1.742719941e0	-2.959589252e0	1.003288814e1
1.449991275e1	-8.987243548e0	-1.889492947e0	-3.011869792e0	9.664993008e0
1.450989375e1	-8.591130356e0	-1.777063269e0	-3.034714864e0	9.283047396e0
1.451987375e1	-8.098302462e0	-1.648795823e0	-2.635148891e0	8.674389898e0
1.452985475e1	-7.633968050e0	-1.586943976e0	-1.557635100e0	7.951231759e0
1.453983475e1	-7.658156227e0	-1.781396056e0	-4.122691955e-1	7.873416959e0
1.454981575e1	-7.907565703e0	-1.978253096e0	4.407511291e-1	8.163169863e0
1.455979575e1	-7.988727980e0	-2.035910735e0	1.029281863e0	8.308076096e0
1.456977675e1	-7.757544276e0	-1.891597945e0	1.678594696e0	8.159369836e0
1.457975675e1	-7.213243343e0	-1.672132938e0	2.827648293e0	7.926064783e0
1.458973775e1	-6.235309389e0	-1.835716105e0	4.240831146e0	7.761029932e0
1.459971875e1	-4.586444861e0	-2.303072650e0	5.355701044e0	7.417759349e0
1.460969875e1	-1.955010121e0	-2.402890761e0	5.922586847e0	6.683785121e0
1.461967975e1	2.024444638e0	-1.822366327e0	5.710623525e0	6.326975278e0
1.462965975e1	7.990240070e0	-8.575905083e-1	4.669660972e0	9.294360196e0
1.463964075e1	1.516284760e1	3.121563850e-1	3.507999901e0	1.556648491e1
1.464962075e1	2.194278537e1	2.179958355e0	3.526724732e0	2.233105093e1
1.465960175e1	2.659675738e1	3.615421731e0	4.453144716e0	2.720825749e1
1.466958175e1	2.766204055e1	4.440862932e0	5.013666995e0	2.846131775e1
1.467956275e1	2.642526323e1	4.943383462e0	4.984261347e0	2.734180751e1
1.468954375e1	2.544474363e1	5.500609081e0	4.419307756e0	2.640496089e1
1.469952375e1	2.688476316e1	6.264021556e0	3.877914351e0	2.787591570e1
1.470950475e1	3.025959828e1	6.887074544e0	4.506431854e0	3.135893831e1
1.471948475e1	3.308421976e1	6.593387028e0	5.862348247e0	3.424040707e1
1.472946575e1	3.421379190e1	5.487581484e0	7.703736443e0	3.549710779e1
1.473944575e1	3.315069325e1	4.275917948e0	9.810539113e0	3.483530701e1
1.474942675e1	3.005494339e1	3.374120589e0	1.275566352e1	3.282363880e1
1.475940675e1	2.493685682e1	3.010895646e0	1.505348830e1	2.928343953e1
1.476938775e1	1.811635809e1	2.734249840e0	1.490618290e1	2.361933194e1
1.477936875e1	1.129763223e1	2.632637219e0	1.203397210e1	1.671477662e1
1.478934875e1	5.437559724e0	2.800044757e0	7.148691251e0	9.408033429e0
1.479932975e1	6.726636887e-1	2.839477210e0	1.841951283e0	3.450781331e0
1.480930975e1	-3.072051090e0	2.534558947e0	-2.251574467e0	4.575049130e0
1.481929075e1	-5.681582159e0	1.737654790e0	-4.364456488e0	7.372129980e0
1.482927075e1	-7.151796123e0	8.713117307e-1	-4.241722262e0	8.360596848e0
1.483925175e1	-8.336623278e0	3.083482397e-1	-2.699640756e0	8.768262457e0
1.484923175e1	-9.608423672e0	-2.737732150e-2	-6.897261563e-1	9.633186241e0
1.485921275e1	-1.058633950e1	-4.956034206e-1	1.077143370e0	1.065253231e1
1.486919375e1	-1.101994095e1	-1.156703802e0	2.004330216e0	1.126030203e1
1.487917375e1	-1.135873447e1	-1.687397387e0	1.739649568e0	1.161441085e1
1.488915475e1	-1.151835878e1	-2.060946759e0	4.721609098e-1	1.171080810e1
1.489913475e1	-1.103646284e1	-2.278670172e0	-1.485585855e0	1.136674162e1
1.490911575e1	-1.017395643e1	-2.029077972e0	-3.485483150e0	1.094418291e1
1.491909575e1	-9.703226919e0	-1.667202858e0	-4.867438656e0	1.098290203e1
1.492907675e1	-9.846844475e0	-1.350435505e0	-5.656340314e0	1.143583001e1
1.493905675e1	-1.022135279e1	-8.444561271e-1	-5.597569950e0	1.168426071e1
1.494903775e1	-1.074306827e1	-7.085858388e-1	-4.825340165e0	1.179828451e1
1.495901775e1	-1.117498806e1	-7.180740425e-1	-3.545200764e0	1.174582636e1
1.496899875e1	-1.123285444e1	-5.986727294e-1	-1.984913367e0	1.142257891e1
1.497897975e1	-1.107124091e1	-4.340418146e-1	-6.259903362e-1	1.109741553e1
1.498895975e1	-1.074932947e1	-6.378392071e-1	2.357806389e-1	1.077081777e1
1.499894075e1	-1.028968452e1	-9.409389860e-1	6.656492226e-1	1.035403606e1
1.500892075e1	-9.857233808e0	-1.042684851e0	6.265186322e-1	9.932007634e0
1.501890175e1	-9.782813371e0	-6.886871061e-1	7.898652792e-2	9.807342466e0
1.502888175e1	-1.016377058e1	-4.948723724e-1	-7.653993595e-1	1.020455620e1
1.503886275e1	-1.072611251e1	-5.534377921e-1	-1.618637931e0	1.086166524e1
1.504884275e1	-1.120454339e1	-5.591513988e-1	-2.191286166e0	1.143049334e1
1.505882375e1	-1.156318353e1	-5.213357010e-1	-2.527433238e0	1.184765475e1
1.506880475e1	-1.165728161e1	-5.366659310e-1	-2.601289419e0	1.195604163e1
1.507878475e1	-1.141218387e1	-5.884000486e-1	-2.243899412e0	1.164556739e1
1.508876575e1	-1.105631297e1	-5.639912123e-1	-1.532519262e0	1.117625867e1
1.509874575e1	-1.070842001e1	-5.075088633e-1	-6.817365208e-1	1.074209425e1
1.510872675e1	-1.035768413e1	-3.020112466e-1	1.216432817e-1	1.036280022e1
1.511870675e1	-1.017000371e1	3.199779131e-2	7.857162412e-1	1.020036026e1
1.512868775e1	-1.029956515e1	5.248109937e-2	1.219402910e0	1.037163150e1
1.513866775e1	-1.075108012e1	-4.189293203e-1	1.034328010e0	1.080884175e1
1.514864875e1	-1.086153052e1	-1.010833313e0	1.570304847e-1	1.090959613e1
1.515862975e1	-1.042346531e1	-1.252588198e0	-1.063434280e0	1.055217981e1
1.516860975e1	-9.481356075e0	-1.087924831e0	-2.388995291e0	9.838038014e0
1.517859075e1	-8.134717752e0	-8.964095152e-1	-3.348943648e0	8.842658338e0
1.518857075e1	-6.779691598e0	-1.125610282e0	-4.058696226e0	7.981493076e0
1.519855175e1	-5.599241084e0	-1.038484503e0	-4.528666184e0	7.275903256e0
1.520853175e1	-4.765071452e0	-6.534348276e-1	-4.188434247e0	6.377763280e0
1.521851275e1	-4.166850420e0	-5.378433410e-1	-3.048845245e0	5.191086130e0
1.522849275e1	-3.076095609e0	-7.494396767e-1	-1.974749737e0	3.731442154e0
1.523847375e1	-5.554854870e-4	-9.022759536e-1	-1.543353860e0	1.787748121e0
1.524845475e1	5.448170081e0	-9.739476147e-1	-1.542881405e0	5.745573446e0
1.525843475e1	1.272726243e1	-7.889367414e-1	-1.425947617e0	1.283117129e1
1.526841575e1	2.095698691e1	4.299124013e-1	-3.507139483e-1	2.096432983e1
1.527839575e1	2.730168367e1	1.811041439e0	2.484354169e0	2.747423917e1
1.528837675e1	3.038064968e1	2.623977200e0	6.327672007e0	3.114335506e1
1.529835675e1	3.131179772e1	3.081780272e0	9.287814406e0	3.280532796e1
1.530833775e1	3.088197357e1	2.993634666e0	1.041126685e1	3.272694024e1
1.531831775e1	3.173749841e1	2.408431582e0	1.128571093e1	3.377035118e1
1.532829875e1	3.407188465e1	1.977978862e0	1.198547880e1	3.617260602e1
1.533827975e1	3.664988695e1	2.621252983e0	1.345614826e1	3.912995153e1
1.534825975e1	3.488709176e1	3.399771447e0	1.397235450e1	3.773452408e1
1.535824075e1	2.919357836e1	2.945347482e0	1.267201209e1	3.196122619e1
1.536822075e1	2.191240090e1	1.054506971e0	8.951951509e0	2.369393876e1
1.537820175e1	1.585011997e1	-3.746212397e-1	3.616330681e0	1.626174935e1
1.538818175e1	1.309111829e1	-1.576437991e0	-1.509768623e0	1.327184750e1
1.539816275e1	1.253175259e1	-1.844429041e0	-4.676686109e0	1.350252326e1
1.540814275e1	1.018502989e1	-2.418985222e0	-5.797462279e0	1.196649039e1
1.541812375e1	5.890072235e0	-3.838155039e0	-5.444478149e0	8.891947332e0
1.542810475e1	1.833761673e0	-3.650286924e0	-4.420364348e0	6.018878423e0
1.543808475e1	-1.181227609e0	-2.586156825e0	-2.614189254e0	3.862316823e0
1.544806575e1	-3.915452891e0	-1.376949412e0	-9.231899822e-1	4.251945527e0
1.545804575e1	-7.566024574e0	2.263032525e-1	-1.595238836e-1	7.571089016e0
1.546802675e1	-1.213271988e1	1.279534214e0	-5.701715000e-1	1.221332039e1
1.547800675e1	-1.584347286e1	1.876836357e0	-1.192430289e0	1.599875111e1
1.548798775e1	-1.806541013e1	2.091015773e0	-1.763149673e0	1.827129133e1
1.549796775e1	-1.880664529e1	2.030677477e0	-2.249883453e0	1.904929220e1
1.550794875e1	-1.852773544e1	1.565355763e0	-2.486696856e0	1.875929051e1
1.551792975e1	-1.797212482e1	8.723944158e-1	-2.877531182e0	1.822192439e1
1.552790975e1	-1.750000777e1	3.366779630e-1	-3.990763274e0	1.795243202e1
1.553789075e1	-1.671196799e1	1.559828829e-2	-5.093780866e0	1.747102518e1
1.554787075e1	-1.498825910e1	-5.347370077e-2	-5.315262870e0	1.590291764e1
1.555785175e1	-1.311779679e1	-1.920895126e-1	-4.572106318e0	1.389307911e1
1.556783175e1	-1.108828437e1	-3.029351432e-1	-3.073401797e0	1.151032661e1
1.557781275e1	-9.537405145e0	-5.264552307e-1	-1.717530720e0	9.705110189e0
1.558779275e1	-9.313403576e0	-1.324961233e0	-1.344048007e0	9.502708744e0
1.559777375e1	-9.423786728e0	-2.227540365e0	-2.239823903e0	9.939139978e0
1.560775475e1	-8.285862429e0	-2.072533017e0	-3.263606459e0	9.143414921e0
1.561773475e1	-7.054153469e0	-1.964013079e0	-4.085122717e0	8.384906448e0
1.562771575e1	-6.394409203e0	-1.972760222e0	-4.426069184e0	8.023112885e0
1.563769575e1	-6.292602746e0	-1.716458341e0	-4.056749688e0	7.681165054e0
1.564767675e1	-6.683865674e0	-1.454440807e0	-2.917361830e0	7.436427802e0
1.565765675e1	-7.477246884e0	-1.314369002e0	-1.530665549e0	7.744657762e0
1.566763775e1	-8.462588090e0	-1.169924064e0	-4.356948955e-1	8.554177315e0
1.567761775e1	-9.066442330e0	-9.043686721e-1	4.305462760e-1	9.121602343e0
1.568759875e1	-9.267238054e0	-6.982765397e-1	7.197595024e-1	9.321338156e0
1.569757975e1	-9.036484705e0	-4.446050289e-1	7.079165518e-1	9.075068887e0
1.570755975e1	-8.844206035e0	-2.765520311e-1	4.324983689e-1	8.859092293e0
1.571754075e1	-8.764678055e0	-1.265604246e-1	1.125400440e-1	8.766314175e0
1.572752075e1	-8.953774086e0	1.527332928e-1	5.318846628e-2	8.955234606e0
1.573750175e1	-9.317992471e0	2.047463226e-1	4.428615354e-1	9.330757262e0
1.574748175e1	-1.003766719e1	-3.065562873e-1	6.008769836e-1	1.006030777e1
1.575746275e1	-1.058124424e1	-8.416076560e-1	2.889400153e-1	1.061859310e1
1.576744275e1	-1.070369078e1	-8.370474125e-1	4.912172779e-2	1.073648255e1
1.577742375e1	-1.084295625e1	-8.836776417e-1	1.966398159e-1	1.088068259e1
1.578740475e1	-1.137251986e1	-1.391153468e0	4.586662669e-1	1.146646810e1
1.579738475e1	-1.154270308e1	-1.598072982e0	1.002547077e0	1.169585107e1
1.580736575e1	-1.111274328e1	-1.445566488e0	2.128123227e0	1.140664868e1
1.581734575e1	-1.005606721e1	-1.297034785e0	3.617287285e0	1.076529397e1
1.582732675e1	-8.222055858e0	-1.326006130e0	5.171186306e0	9.803145546e0
1.583730675e1	-5.577888222e0	-1.069378340e0	6.186281655e0	8.398004987e0
1.584728775e1	-2.355523344e0	-6.047044978e-1	6.750478324e0	7.175173542e0
1.585726875e1	1.013569225e0	-1.701998761e-1	6.315664165e0	6.398742409e0
1.586724875e1	4.699099656e0	4.216520032e-1	4.653140249e0	6.626540739e0
1.587722975e1	9.814366701e0	9.240550777e-1	2.231729017e0	1.010723928e1
1.588720975e1	1.705630350e1	1.382683776e0	4.121234536e-1	1.711721792e1
1.589719075e1	2.399386700e1	1.018513923e0	-6.709305739e-1	2.402484489e1
1.590717075e1	2.909204497e1	4.450438625e-1	-1.327034363e0	2.912569595e1
1.591715175e1	3.243629447e1	6.471303597e-1	-1.000053971e0	3.245815899e1
1.592713175e1	3.383485724e1	1.878370374e0	-4.973360968e-1	3.389060612e1
1.593711275e1	3.389426261e1	3.670475897e0	3.756546620e-1	3.409449439e1
1.594709375e1	3.250657567e1	4.840912762e0	1.904236994e0	3.292017643e1
1.595707375e1	3.093417050e1	5.063483518e0	3.920993128e0	3.159012436e1
1.596705475e1	2.960726653e1	4.742671938e0	5.343223085e0	3.045707145e1
1.597703475e1	2.859230917e1	3.905846500e0	5.984596569e0	2.947187094e1
1.598701575e1	2.855375263e1	3.166244179e0	7.024171286e0	2.957500421e1
1.599699575e1	2.816376440e1	2.966486043e0	9.087761278e0	2.974197488e1
1.600697675e1	2.558077326e1	2.634315078e0	1.182965635e1	2.830647180e1
1.601695675e1	2.067976574e1	1.908463361e0	1.405161350e1	2.507474397e1
1.602693775e1	1.344696346e1	8.001148635e-1	1.393466802e1	1.938133078e1
1.603691875e1	5.224013561e0	2.306085574e-1	1.122531036e1	1.238350075e1
1.604689875e1	-2.408780369e0	5.024480250e-1	6.843389411e0	7.272321191e0
1.605687975e1	-8.373727954e0	8.780996903e-1	2.261192845e0	8.717991282e0
1.606685975e1	-1.166409244e1	2.932152801e-1	-2.013719967e0	1.184027431e1
1.607684075e1	-1.220436815e1	-6.784831300e-1	-5.335514116e0	1.333696563e1
1.608682075e1	-1.052475662e1	-9.179706844e-1	-7.272638190e0	1.282592837e1
1.609680175e1	-8.549841412e0	-8.038945037e-1	-7.774552656e0	1.158402795e1
1.610678175e1	-7.736734035e0	-1.082328096e0	-6.883119487e0	1.041181163e1
1.611676250e1	-8.491804873e0	-1.506374607e0	-5.204918894e0	1.007328621e1
1.612674350e1	-9.943669689e0	-1.657629504e0	-3.739378610e0	1.075208142e1
1.613672350e1	-1.098949449e1	-1.458621858e0	-2.433615248e0	1.134984802e1
1.614670450e1	-1.186218091e1	-1.372184516e0	-1.673286009e0	1.205794809e1
1.615668450e1	-1.259366524e1	-1.070200678e0	-1.543137660e0	1.273291041e1
1.616666550e1	-1.354144511e1	-9.274718982e-1	-2.228068368e0	1.375482564e1
1.617664550e1	-1.420321076e1	-7.651762882e-1	-3.462836884e0	1.463925988e1
1.618662650e1	-1.427947014e1	-3.117296845e-1	-4.589868990e0	1.500224451e1
1.619660650e1	-1.416972375e1	3.584577084e-2	-5.304397573e0	1.513006906e1
1.620658750e1	-1.390284630e1	8.736704975e-2	-5.475628606e0	1.494253248e1
1.621656850e1	-1.323121523e1	1.149395952e-1	-4.825344551e0	1.408411224e1
1.622654850e1	-1.243055833e1	1.816811764e-1	-3.449009096e0	1.290145156e1
1.623652950e1	-1.194808586e1	6.861181319e-2	-1.878802337e0	1.209509659e1
1.624650950e1	-1.169815013e1	-2.348089778e-1	-3.870441610e-1	1.170690629e1
1.625649050e1	-1.147984902e1	-5.145491302e-1	6.246112704e-1	1.150833756e1
1.626647050e1	-1.122406257e1	-7.084732068e-1	1.147633893e0	1.130480333e1
1.627645150e1	-1.081351669e1	-9.803321895e-1	1.287292593e0	1.093390674e1
1.628643150e1	-1.031702610e1	-1.244022027e0	1.043053079e0	1.044397329e1
1.629641250e1	-9.750693446e0	-1.236369191e0	3.287618928e-1	9.834262343e0
1.630639350e1	-9.272953708e0	-8.896924531e-1	-1.475638425e-1	9.316705330e0
1.631637350e1	-8.855137990e0	-8.815896741e-1	-7.420403177e-1	8.929798038e0
1.632635450e1	-8.712343136e0	-9.974537140e-1	-1.308960620e0	8.866409349e0
1.633633450e1	-8.706157367e0	-9.155225283e-1	-1.327174112e0	8.854193849e0
1.634631550e1	-8.910858446e0	-9.461601841e-1	-1.316740048e0	9.057175150e0
1.635629550e1	-9.057473871e0	-1.020412806e0	-1.212529508e0	9.195069495e0
1.636627650e1	-8.778466959e0	-1.122342931e0	-8.203602630e-1	8.887864016e0
1.637625650e1	-8.538089093e0	-1.185882577e0	-2.605501753e-1	8.623988013e0
1.638623750e1	-8.645519401e0	-1.174531962e0	2.285892946e-1	8.727931262e0
1.639621850e1	-8.997439338e0	-9.320195702e-1	4.824028927e-1	9.058437375e0
1.640619850e1	-9.420790615e0	-8.048981783e-1	9.549087882e-1	9.503210388e0
1.641617950e1	-9.988486258e0	-1.313026189e0	1.526047271e0	1.018934325e1
1.642615950e1	-1.066942843e1	-2.118035318e0	2.288646692e0	1.111578519e1
1.643614050e1	-1.118036048e1	-2.498709376e0	3.038024680e0	1.185215604e1
1.644612050e1	-1.053205863e1	-2.633151482e0	3.899689675e0	1.153539445e1
1.645610150e1	-8.319435972e0	-2.838325601e0	4.468681937e0	9.860944446e0
