"Time (s)"	"Linear Acceleration x (m/s^2)"	"Linear Acceleration y (m/s^2)"	"Linear Acceleration z (m/s^2)"	"Absolute acceleration (m/s^2)"
5.129166675e-5	-4.236905618e-1	2.132947326e-1	-1.184078127e0	1.275558444e0
1.003329166e-2	-5.989342462e-1	1.537893730e-1	-1.323661104e0	1.460976428e0
2.001429167e-2	-6.874118283e-1	1.144352728e-1	-1.277168723e0	1.454919380e0
2.999529166e-2	-6.184143913e-1	7.334981203e-2	-1.150463068e0	1.308197931e0
3.997729166e-2	-4.368706244e-1	1.624040759e-1	-9.078767091e-1	1.020524936e0
4.995829167e-2	-1.930632202e-1	2.010377991e-1	-6.982575363e-1	7.518332200e-1
5.994029166e-2	-6.912782997e-2	1.949373990e-1	-6.481018746e-1	6.803052890e-1
6.992129167e-2	-1.220104869e-1	2.849529451e-1	-7.685714740e-1	8.287260406e-1
7.990329166e-2	-3.306153139e-1	4.721989167e-1	-8.881177980e-1	1.058787762e0
8.988429166e-2	-5.364871524e-1	6.074964702e-1	-1.111835192e0	1.375880780e0
9.986629166e-2	-4.338296337e-1	6.525726557e-1	-1.219270763e0	1.449372422e0
1.098472917e-1	-5.378290884e-1	6.816379952e-1	-8.393993819e-1	1.207676201e0
1.198282917e-1	-7.158034225e-1	6.752925968e-1	-3.952893198e-1	1.060494355e0
1.298102917e-1	-7.457671867e-1	6.594004494e-1	-5.280912817e-2	9.968783544e-1
1.397912917e-1	-7.561439480e-1	6.607394618e-1	1.646494067e-1	1.017565592e0
1.497732917e-1	-8.831450334e-1	8.668684316e-1	2.252891260e-1	1.257839902e0
1.597542917e-1	-1.072878264e0	1.086285784e0	9.124053776e-2	1.529512801e0
1.697362917e-1	-1.044293420e0	1.089286575e0	-2.986097020e-1	1.538265823e0
1.797172917e-1	-1.048539375e0	1.065077932e0	-5.921305722e-1	1.607620738e0
1.896992917e-1	-9.873025091e-1	1.134202546e0	-6.296135634e-1	1.630213146e0
1.996802917e-1	-9.001225702e-1	1.262535481e0	-4.858778930e-1	1.624898092e0
2.096612917e-1	-7.881812811e-1	1.311752665e0	-2.629054338e-1	1.552753700e0
2.196432917e-1	-6.758458896e-1	1.363823875e0	-9.980787814e-2	1.525367116e0
2.296242917e-1	-6.640368529e-1	1.297894764e0	-5.795643210e-2	1.459052675e0
2.396062917e-1	-8.338500819e-1	1.240048844e0	-8.317021072e-2	1.496644373e0
2.495872917e-1	-1.099397726e0	1.240578602e0	-1.358103544e-1	1.663176202e0
2.595692917e-1	-1.141567553e0	1.194458104e0	-2.159569699e-1	1.666296508e0
2.695502917e-1	-9.636077640e-1	1.261114023e0	-2.172363406e-1	1.601917642e0
2.795322917e-1	-8.357786398e-1	1.597984981e0	-1.681115431e-1	1.811171837e0
2.895132917e-1	-6.104514337e-1	1.843066347e0	-2.186759251e-1	1.953807481e0
2.994942917e-1	-2.941395787e-1	1.838003243e0	-4.279243845e-1	1.909945887e0
3.094762917e-1	-1.208457215e-1	1.760963838e0	-7.416982555e-1	1.914605346e0
3.194572917e-1	-8.844293743e-2	1.808463110e0	-9.495913303e-1	2.044525536e0
3.294392917e-1	-1.382793412e-1	1.830143416e0	-1.004532938e0	2.092279265e0
3.394202917e-1	-2.048422169e-1	1.769518899e0	-9.441481572e-1	2.016078672e0
3.494022917e-1	-2.364684176e-1	1.703682759e0	-7.866130579e-1	1.891351993e0
3.593832917e-1	-1.517549805e-1	1.605275874e0	-5.938233411e-1	1.718303340e0
3.693652917e-1	1.946443073e-2	1.574852226e0	-3.678091604e-1	1.617350295e0
3.793462917e-1	1.633811456e-1	1.552065042e0	-1.660924995e-1	1.569454049e0
3.893272917e-1	2.808427180e-1	1.377368365e0	-1.444449377e-1	1.413110252e0
3.993092917e-1	2.559145758e-1	1.266996907e0	-2.328016287e-1	1.313381145e0
4.092902917e-1	7.348166674e-2	1.369275818e0	-1.534783012e-1	1.379808469e0
4.192722917e-1	-6.684851222e-2	1.471083444e0	7.537704170e-2	1.474529390e0
4.292532917e-1	-6.637393758e-2	1.414099404e0	2.595304209e-1	1.439249340e0
4.392352917e-1	-7.495852724e-2	1.243885202e0	3.233463478e-1	1.287409041e0
4.492162917e-1	-1.557918251e-1	1.088247524e0	2.991786361e-1	1.139325074e0
4.591978750e-1	-2.513633224e-1	1.014236977e0	3.038388669e-1	1.088199533e0
4.691788750e-1	-2.370347936e-1	9.383254999e-1	2.588743633e-1	1.001826419e0
4.791598750e-1	-2.111262926e-1	8.394549304e-1	1.577648950e-1	8.798571780e-1
4.891418750e-1	-1.536469202e-1	9.199933094e-1	1.522106248e-1	9.450730870e-1
4.991228750e-1	-8.296957813e-2	1.101654605e0	2.994902927e-1	1.144648966e0
5.091048750e-1	-3.250953231e-2	1.134524143e0	4.693226713e-1	1.228196105e0
5.190858750e-1	-2.702115297e-2	9.839337820e-1	5.184135550e-1	1.112478514e0
5.290678750e-1	-7.408751138e-2	8.885949308e-1	4.476505512e-1	9.977379046e-1
5.390488750e-1	-1.629341991e-1	8.302461505e-1	2.990535057e-1	8.973790854e-1
5.490308750e-1	-1.464863834e-1	7.766108108e-1	9.824199378e-2	7.963881599e-1
5.590118750e-1	-7.683541037e-2	7.080855364e-1	-1.345070100e-1	7.248316652e-1
5.689928750e-1	-5.427334405e-2	6.813929969e-1	-3.442647618e-1	7.653497490e-1
5.789748750e-1	-1.387243143e-1	6.613849944e-1	-4.103616875e-1	7.906144830e-1
5.889558750e-1	-2.600811555e-1	6.665270358e-1	-2.991622639e-1	7.754989085e-1
5.989378750e-1	-3.586535901e-1	5.572858447e-1	-9.741051972e-2	6.698423096e-1
6.089188750e-1	-4.975865038e-1	3.821710914e-1	1.066497052e-1	6.364127839e-1
6.189008750e-1	-6.005344829e-1	2.308749712e-1	3.496804529e-1	7.322713545e-1
6.288818750e-1	-6.430813091e-1	9.149956942e-2	5.825557566e-1	8.725233239e-1
6.388638750e-1	-5.820243908e-1	-4.264666736e-2	7.500667906e-1	9.503532607e-1
6.488448750e-1	-4.576199808e-1	-9.771515965e-2	8.818010509e-1	9.982671950e-1
6.588258750e-1	-2.885483615e-1	-1.264092010e-1	9.655267471e-1	1.015618699e0
6.688078750e-1	-5.804571178e-2	-1.184037781e-1	9.262381357e-1	9.355778125e-1
6.787888750e-1	1.055524752e-1	-1.688173020e-1	6.199796909e-1	6.511646670e-1
6.887708750e-1	2.170145484e-1	-2.897260273e-1	1.350303358e-1	3.863543408e-1
6.987518750e-1	3.525623263e-1	-4.306398314e-1	-3.874341702e-1	6.781269015e-1
7.087338750e-1	4.197010797e-1	-4.573686236e-1	-8.063900954e-1	1.017644358e0
7.187148750e-1	3.806871412e-1	-3.921867871e-1	-9.831753981e-1	1.124885345e0
7.286968750e-1	3.081655873e-1	-4.038379490e-1	-9.588977587e-1	1.085143322e0
7.386778750e-1	3.134311511e-1	-5.407920188e-1	-7.106916404e-1	9.464553353e-1
7.486588750e-1	2.729498539e-1	-7.668038607e-1	-3.655240685e-1	8.922430320e-1
7.586408750e-1	1.135769746e-1	-9.350440425e-1	-9.901616514e-2	9.471068005e-1
7.686218750e-1	-1.616181370e-1	-1.004749285e0	1.751159227e-1	1.032621486e0
7.786038750e-1	-3.053126577e-1	-1.066529211e0	4.529352647e-1	1.198269891e0
7.885848750e-1	-3.534563655e-1	-1.138079250e0	5.662431943e-1	1.319388926e0
7.985668750e-1	-3.856132011e-1	-1.110556406e0	4.276641834e-1	1.250971513e0
8.085478750e-1	-3.233725141e-1	-9.997505003e-1	5.865751326e-2	1.052383746e0
8.185298750e-1	-2.150043853e-1	-8.353881919e-1	-2.931027943e-1	9.110486074e-1
8.285108750e-1	-3.293451525e-2	-6.696845323e-1	-6.309420508e-1	9.206790573e-1
8.384918750e-1	1.051763530e-1	-4.807557321e-1	-9.627697849e-1	1.081255658e0
8.484738750e-1	2.176713735e-1	-3.209735477e-1	-1.198301479e0	1.259496439e0
8.584548750e-1	2.403836402e-1	-2.978548265e-1	-1.378367654e0	1.430524093e0
8.684368750e-1	1.949218308e-1	-3.789732492e-1	-1.480955299e0	1.541052835e0
8.784178750e-1	1.268024994e-1	-4.216871595e-1	-1.456763613e0	1.521860427e0
8.883998750e-1	5.210219979e-2	-4.275624418e-1	-1.291286241e0	1.361229017e0
8.983808750e-1	1.906842805e-2	-4.874338371e-1	-1.100723729e0	1.203971792e0
9.083628750e-1	1.103007066e-1	-5.899682719e-1	-1.075539186e0	1.231670958e0
9.183438750e-1	1.614488601e-1	-6.610528725e-1	-1.184709626e0	1.366233337e0
9.283248750e-1	1.558350945e-1	-5.959903193e-1	-1.291641167e0	1.431022691e0
9.383068750e-1	1.045053119e-1	-4.703248841e-1	-1.295085762e0	1.381800994e0
9.482878750e-1	5.721113138e-2	-3.528133911e-1	-1.168743219e0	1.222174748e0
9.582698750e-1	-4.211807907e-2	-2.240717357e-1	-8.504956430e-1	8.805253626e-1
9.682508750e-1	-1.127283975e-1	-1.129214287e-1	-4.542701840e-1	4.814772484e-1
9.782328750e-1	-1.105772068e-1	-2.808943927e-2	-1.223407084e-1	1.672829465e-1
9.882138750e-1	-1.975804136e-1	-2.792688668e-2	8.722759366e-2	2.177764540e-1
9.981958750e-1	-2.483897940e-1	-6.184541523e-2	1.428609270e-1	2.931409040e-1
1.008176875e0	-3.024661600e-1	-1.577344894e-2	7.834041059e-2	3.128446892e-1
1.018157875e0	-3.402029204e-1	1.811373854e-1	-2.598210275e-2	3.862950285e-1
1.028139875e0	-2.358883739e-1	4.293610454e-1	-7.252769351e-2	4.952317624e-1
1.038120875e0	-4.268474735e-2	6.703294802e-1	-5.245010912e-2	6.737318559e-1
1.048102875e0	1.785588364e-1	8.824711418e-1	-3.258653283e-2	9.009442027e-1
1.058083875e0	2.400121958e-1	1.049502119e0	-4.212626517e-2	1.077420612e0
1.068065875e0	1.919284219e-1	1.114529589e0	-1.285674083e-1	1.138218917e0
1.078046875e0	9.080097333e-2	1.099327413e0	-2.534265125e-1	1.131808542e0
1.088028875e0	-1.946165331e-2	1.105930089e0	-3.132622397e-1	1.149605736e0
1.098009875e0	-1.014385204e-1	1.124720117e0	-2.535405332e-1	1.157397044e0
1.107990875e0	-1.385956755e-1	1.155196390e0	-3.932837248e-2	1.164145258e0
1.117972875e0	-1.937277563e-1	1.212564592e0	2.460847485e-1	1.252358190e0
1.127953875e0	-2.378041410e-1	1.237343922e0	4.705669588e-1	1.344992213e0
1.137935875e0	-3.370524406e-1	1.143776193e0	4.966490489e-1	1.291699889e0
1.147916875e0	-5.266457769e-1	1.109331415e0	4.145512176e-1	1.296080504e0
1.157898875e0	-6.852584450e-1	1.147353519e0	3.921405941e-1	1.392757509e0
1.167879875e0	-7.015207212e-1	1.107336929e0	3.291549718e-1	1.351543337e0
1.177861875e0	-6.100803548e-1	1.007592201e0	8.518808484e-2	1.180972943e0
1.187842875e0	-5.256023412e-1	9.955808508e-1	-1.569059390e-1	1.136687523e0
1.197823875e0	-4.571894065e-1	1.063580461e0	-1.536005080e-1	1.167826471e0
1.207805875e0	-4.654821470e-1	1.149849111e0	1.925049573e-1	1.255342489e0
1.217786875e0	-5.250095066e-1	1.173508115e0	7.332034206e-1	1.479980923e0
1.227768875e0	-6.168322078e-1	1.031474569e0	1.284285370e0	1.758923156e0
1.237749875e0	-7.788079020e-1	7.810979640e-1	1.761440386e0	2.078299308e0
1.247731875e0	-8.504997361e-1	4.519979560e-1	2.067063823e0	2.280439607e0
1.257712875e0	-9.236926235e-1	2.629878795e-1	2.209902531e0	2.409572552e0
1.267694875e0	-9.629519257e-1	2.154675579e-1	2.188191234e0	2.400392376e0
1.277675875e0	-8.214938919e-1	2.074913710e-1	1.993429252e0	2.166025177e0
1.287656875e0	-5.481302013e-1	2.132233965e-1	1.634839981e0	1.737415523e0
1.297638875e0	-1.967240889e-1	2.762622285e-1	1.149548564e0	1.198533724e0
1.307619875e0	2.796452813e-2	3.814349270e-1	6.917934394e-1	7.904763002e-1
1.317601875e0	1.137407698e-1	3.588295913e-1	1.719426388e-1	4.138356066e-1
1.327582875e0	1.304300389e-1	1.507207543e-1	-3.499903554e-1	4.027679104e-1
1.337564875e0	4.810431227e-2	-5.296641827e-2	-8.163748008e-1	8.195042902e-1
1.347545875e0	-5.003791340e-2	-1.346754098e-1	-1.061138663e0	1.070820490e0
1.357527875e0	-6.018414818e-2	-1.575754452e-1	-1.019707632e0	1.033564612e0
1.367508875e0	-7.508409619e-3	-1.846843064e-1	-6.809474391e-1	7.055877578e-1
1.377489875e0	3.483639523e-2	-2.684421623e-1	-2.454433089e-1	3.654000367e-1
1.387471875e0	-6.221123166e-2	-4.334476644e-1	5.234252036e-2	4.410066377e-1
1.397452875e0	-2.248934157e-1	-5.558152699e-1	2.131929910e-1	6.363638222e-1
1.407434875e0	-4.121312012e-1	-5.830925310e-1	2.837332159e-1	7.683446912e-1
1.417415875e0	-5.127648523e-1	-5.790211147e-1	3.134388256e-1	8.345280957e-1
1.427397875e0	-5.242476875e-1	-5.501230055e-1	3.800064522e-1	8.496327811e-1
1.437378875e0	-5.252939737e-1	-5.009672177e-1	4.970671248e-1	8.797599892e-1
1.447360875e0	-4.786930536e-1	-4.303112179e-1	5.977281117e-1	8.784040525e-1
1.457342000e0	-4.779534540e-1	-4.194722342e-1	5.775031775e-1	8.590147726e-1
1.467323000e0	-5.683421986e-1	-3.987216353e-1	4.654863131e-1	8.358644058e-1
1.477305000e0	-6.256997296e-1	-3.768729293e-1	3.005457151e-1	7.898487725e-1
1.487286000e0	-5.863548388e-1	-3.855051738e-1	7.969988823e-2	7.062423863e-1
1.497268000e0	-5.323156757e-1	-3.981953859e-1	-2.170597547e-1	6.993100036e-1
1.507249000e0	-4.897947235e-1	-3.667110533e-1	-5.053456128e-1	7.935679278e-1
1.517231000e0	-4.430397293e-1	-3.315435594e-1	-8.016573590e-1	9.740943767e-1
1.527212000e0	-4.236157905e-1	-2.988254642e-1	-1.057149693e0	1.177417712e0
1.537194000e0	-4.142159528e-1	-2.225777721e-1	-1.211334338e0	1.299402400e0
1.547175000e0	-3.075761879e-1	-1.943632025e-1	-1.295254161e0	1.345386007e0
1.557156000e0	-2.067595920e-1	-1.457096905e-1	-1.365092720e0	1.388329564e0
1.567138000e0	-1.811730534e-1	-6.901702523e-2	-1.336521471e0	1.350509780e0
1.577119000e0	-1.641789251e-1	2.879695237e-2	-1.175149428e0	1.186912028e0
1.587101000e0	-4.816026282e-2	1.446741486e-1	-8.968330729e-1	9.097030179e-1
1.597082000e0	-1.431544572e-2	1.825635213e-1	-6.632765687e-1	6.880916929e-1
1.607064000e0	-1.070869307e-1	1.545974582e-1	-5.877252799e-1	6.170810234e-1
1.617045000e0	-2.164633387e-1	6.959882319e-2	-5.950629508e-1	6.370245589e-1
1.627027000e0	-3.351242847e-1	1.648096204e-2	-5.582482964e-1	6.513225535e-1
1.637008000e0	-4.018077958e-1	2.166744232e-2	-4.845499903e-1	6.298473433e-1
1.646989000e0	-4.189641843e-1	1.131863075e-1	-3.333725685e-1	5.472471081e-1
1.656971000e0	-3.663485259e-1	2.354398924e-1	-1.653744614e-1	4.658238914e-1
1.666952000e0	-3.145838566e-1	2.990985292e-1	-9.465004921e-2	4.442764509e-1
1.676934000e0	-3.055283103e-1	3.234194380e-1	-7.906195700e-2	4.518832530e-1
1.686915000e0	-3.483958562e-1	2.812627673e-1	-6.440064847e-2	4.523669533e-1
1.696897000e0	-4.069381062e-1	1.961840254e-1	5.728166342e-2	4.553767485e-1
1.706878000e0	-5.221091415e-1	1.811344618e-1	3.281065661e-1	6.426986600e-1
1.716860000e0	-6.257431452e-1	2.859955037e-1	7.476951599e-1	1.016068878e0
1.726841000e0	-5.258292863e-1	4.253095096e-1	1.202257705e0	1.379423142e0
1.736822000e0	-3.421219400e-1	4.476406109e-1	1.450108897e0	1.555713776e0
1.746804000e0	-2.735641405e-1	4.617516965e-1	1.453566356e0	1.549486082e0
1.756785000e0	-2.880195905e-1	4.571651405e-1	1.339588335e0	1.444455661e0
1.766767000e0	-3.652559736e-1	4.376237458e-1	1.167076178e0	1.298843052e0
1.776748000e0	-3.618753694e-1	4.027421808e-1	9.181099212e-1	1.065870947e0
1.786730000e0	-2.248434951e-1	2.710582066e-1	6.696933031e-1	7.566480482e-1
1.796711000e0	-2.088179581e-1	1.857362205e-1	4.954322433e-1	5.688198229e-1
1.806693000e0	-4.437837875e-1	3.377924788e-1	6.085255802e-1	8.254399981e-1
1.816674000e0	-8.517651466e-1	4.675930649e-1	9.900166404e-1	1.387184230e0
1.826655000e0	-1.284870676e0	4.506074882e-1	1.442687611e0	1.983755858e0
1.836637000e0	-1.564132672e0	3.218377662e-1	1.613168446e0	2.269890526e0
1.846618000e0	-1.624269531e0	6.089582741e-2	1.329073287e0	2.099617969e0
1.856600000e0	-1.484807444e0	-1.196007031e-1	8.066578978e-1	1.694005442e0
1.866581000e0	-1.208424763e0	-9.815370083e-2	3.377252358e-1	1.258563821e0
1.876563000e0	-8.450181176e-1	-4.438387513e-2	-1.048101711e-1	8.526492358e-1
1.886544000e0	-4.068271188e-1	-7.062384009e-2	-5.763664788e-1	7.090094141e-1
1.896526000e0	-1.148670897e-2	-1.189610177e-1	-1.004690228e0	1.011773751e0
1.906507000e0	2.721434863e-1	-1.508657652e-1	-1.201534404e0	1.241171818e0
1.916488000e0	6.212903443e-1	-1.520761389e-1	-1.061022888e0	1.238910172e0
1.926470000e0	9.751345995e-1	-1.723718244e-1	-6.939305967e-1	1.209189483e0
1.936451000e0	1.107152888e0	-2.574722010e-1	-2.099173808e-1	1.155917280e0
1.946433000e0	9.939708931e-1	-3.378538746e-1	3.006942344e-1	1.092034981e0
1.956414000e0	5.845716207e-1	-4.652401453e-1	7.733527422e-1	1.075289187e0
1.966396000e0	1.292683068e-1	-6.650868666e-1	1.120958018e0	1.309808274e0
1.976377000e0	-2.669386239e-1	-8.384509635e-1	1.241797746e0	1.521945429e0
1.986359000e0	-5.730706226e-1	-9.202733910e-1	1.060398991e0	1.516495655e0
1.996340000e0	-6.825402206e-1	-9.280408323e-1	5.955114323e-1	1.296824894e0
2.006322000e0	-6.766026655e-1	-8.114947146e-1	4.644677281e-2	1.057578433e0
2.016303000e0	-5.191617794e-1	-6.007657403e-1	-4.373951197e-1	9.065114001e-1
2.026284000e0	-2.772225606e-1	-4.046407717e-1	-7.887607402e-1	9.288326047e-1
2.036266000e0	-9.390219033e-2	-2.659565109e-1	-9.819954300e-1	1.021697368e0
2.046247000e0	-4.477837946e-2	-1.472884387e-1	-9.909352380e-1	1.002821835e0
2.056229000e0	-4.203958020e-2	-1.384603125e-1	-8.490940654e-1	8.613357745e-1
2.066210000e0	1.631650910e-2	-2.051478070e-1	-7.060852039e-1	7.354645922e-1
2.076192000e0	5.885551460e-2	-3.122916019e-1	-6.786582541e-1	7.493777700e-1
2.086173000e0	3.025276288e-2	-4.446953684e-1	-7.938273525e-1	9.104015960e-1
2.096155000e0	1.668137535e-2	-5.156086457e-1	-9.420238638e-1	1.074029564e0
2.106136000e0	1.356137417e-2	-4.331184661e-1	-9.847114617e-1	1.075840220e0
2.116117000e0	2.407795697e-2	-2.317076147e-1	-9.181566989e-1	9.472485896e-1
2.126099000e0	-7.513504006e-2	-1.797960341e-2	-7.247395760e-1	7.288456581e-1
2.136080000e0	-2.599302974e-1	8.491677403e-2	-5.056104916e-1	5.748187430e-1
2.146062000e0	-4.496510299e-1	-1.240837634e-2	-4.147289729e-1	6.118334229e-1
2.156043000e0	-6.266277558e-1	-1.582969916e-1	-3.829435086e-1	7.512429785e-1
2.166025000e0	-7.033555774e-1	-2.835981452e-1	-3.581437129e-1	8.386917761e-1
2.176006000e0	-7.096638460e-1	-2.717622113e-1	-2.773205745e-1	8.089401554e-1
2.185988000e0	-6.758197233e-1	-1.402787966e-1	-1.380913532e-1	7.039031617e-1
2.195969000e0	-6.795990711e-1	-3.254560232e-3	1.715573072e-3	6.796090294e-1
2.205950000e0	-5.584427163e-1	1.297169709e-1	7.170557499e-2	5.777771624e-1
2.215932000e0	-3.380530453e-1	2.347364724e-1	-2.295792282e-2	4.121991499e-1
2.225913000e0	-1.070747247e-1	3.571338987e-1	-6.150218368e-2	3.778784684e-1
2.235895000e0	-2.490636125e-2	4.781958210e-1	2.935886979e-2	4.797431743e-1
2.245876000e0	-1.882145628e-2	5.322638547e-1	1.557891208e-1	5.549137847e-1
2.255858000e0	-7.168627918e-2	4.686280221e-1	2.694005209e-1	5.452777149e-1
2.265839000e0	-2.681182265e-1	3.462364429e-1	3.889509380e-1	5.857046098e-1
2.275821000e0	-4.875026880e-1	2.562600732e-1	5.858214265e-1	8.040614651e-1
2.285802000e0	-6.840807427e-1	1.928534514e-1	8.418312389e-1	1.101743505e0
2.295783000e0	-9.236655801e-1	1.359460098e-1	1.061614627e0	1.413741503e0
2.305765000e0	-1.017979122e0	5.212441921e-2	1.107139878e0	1.504911013e0
2.315746000e0	-9.526419689e-1	-2.842273057e-2	8.575573254e-1	1.282083905e0
2.325728000e0	-8.464460807e-1	8.563247323e-3	4.379728246e-1	9.530815767e-1
2.335709000e0	-6.831292545e-1	9.830689788e-2	-2.680831432e-2	6.906869843e-1
2.345691000e0	-4.779364970e-1	2.132660812e-1	-3.064192432e-1	6.064639059e-1
2.355672000e0	-3.078373392e-1	3.723764205e-1	-2.708395207e-1	5.538791131e-1
2.365654000e0	-2.444505248e-1	4.306246287e-1	8.515884876e-2	5.024397072e-1
2.375635000e0	-3.861648859e-1	3.866635072e-1	7.093830335e-1	8.954642791e-1
2.385616000e0	-6.611972257e-1	3.061625504e-1	1.358678910e0	1.541728140e0
2.395598000e0	-9.401941238e-1	2.471781778e-1	1.861863391e0	2.100380282e0
2.405579000e0	-9.803019302e-1	1.764777392e-1	2.241918375e0	2.453229355e0
2.415561000e0	-8.680852371e-1	2.994300663e-2	2.281656638e0	2.441398283e0
2.425542000e0	-5.774365924e-1	-3.255554259e-2	1.943684649e0	2.027906038e0
2.435524000e0	-1.865659769e-1	1.653183281e-2	1.287194944e0	1.300750164e0
2.445505000e0	1.258825862e-1	5.319562912e-2	4.874198037e-1	5.062156315e-1
2.455487000e0	4.808026560e-1	9.421384692e-2	-1.210975903e-1	5.046900725e-1
2.465468167e0	7.394354562e-1	1.583753443e-1	-4.114972168e-1	8.609166644e-1
2.475449167e0	7.055360042e-1	1.717321390e-1	-4.530504549e-1	8.558783181e-1
2.485431167e0	5.541629930e-1	-5.865926743e-3	-4.046267384e-1	6.861878965e-1
2.495412167e0	3.472631409e-1	-3.210179865e-1	-4.453865093e-1	6.496255686e-1
2.505394167e0	8.764048018e-2	-6.678391510e-1	-5.381619412e-1	8.621532696e-1
2.515375167e0	-1.578729223e-1	-9.664640558e-1	-5.464018375e-1	1.121397164e0
2.525357167e0	-4.157379100e-1	-1.117355549e0	-3.079699248e-1	1.231327295e0
2.535338167e0	-6.898705825e-1	-1.097749250e0	1.428626812e-1	1.304371336e0
2.545320167e0	-8.818371575e-1	-9.827134681e-1	5.970358014e-1	1.449073594e0
2.555301167e0	-9.129715343e-1	-8.592202735e-1	8.980089480e-1	1.542140257e0
2.565282167e0	-7.935267325e-1	-8.605528539e-1	9.057068074e-1	1.480047537e0
2.575264167e0	-5.034504571e-1	-8.863496000e-1	7.294752359e-1	1.253479994e0
2.585245167e0	-2.691068445e-1	-8.510417730e-1	4.816883630e-1	1.014255526e0
2.595227167e0	-1.723153257e-1	-7.658016479e-1	2.227812552e-1	8.159511156e-1
2.605208167e0	-1.497399569e-1	-6.340603709e-1	-3.861267328e-2	6.526450392e-1
2.615190167e0	-1.669768909e-1	-5.114524448e-1	-2.827812892e-1	6.078076529e-1
2.625171167e0	-1.930850011e-1	-4.260854352e-1	-4.448023725e-1	6.455073712e-1
2.635153167e0	-2.025753976e-1	-3.573005444e-1	-4.501712859e-1	6.093887571e-1
2.645134167e0	-2.331871064e-1	-3.045112967e-1	-5.074856937e-1	6.361171950e-1
2.655115167e0	-2.802072718e-1	-2.867018473e-1	-5.808185488e-1	7.057366726e-1
2.665097167e0	-1.732136773e-1	-2.878549182e-1	-7.189350450e-1	7.935559406e-1
2.675078167e0	-7.140809789e-2	-2.506461614e-1	-8.194475126e-1	8.598935054e-1
2.685060167e0	-6.263793223e-2	-1.456237364e-1	-7.818803215e-1	7.977885812e-1
2.695041167e0	7.034858242e-3	-6.091219962e-2	-6.687858152e-1	6.715908367e-1
2.705023167e0	1.136627094e-1	4.025223255e-3	-4.903445810e-1	5.033619196e-1
2.715004167e0	1.405615825e-1	6.199744284e-2	-2.960047674e-1	3.334967222e-1
2.724986167e0	1.060130896e-1	7.806149840e-2	-1.519083238e-1	2.010186845e-1
2.734967167e0	-9.967236891e-3	4.391843677e-2	7.807787061e-3	4.570707208e-2
2.744949167e0	-1.993548243e-1	2.985939145e-2	2.144817173e-1	2.943405108e-1
2.754930167e0	-2.621272425e-1	1.428240895e-2	3.326077527e-1	4.237246696e-1
2.764911167e0	-2.650835947e-1	-8.687793016e-3	4.309362853e-1	5.060146953e-1
2.774893167e0	-3.183675168e-1	1.070215881e-2	4.956164306e-1	5.891587717e-1
2.784874167e0	-3.636679430e-1	2.922906160e-2	5.105660069e-1	6.275239901e-1
2.794856167e0	-3.707306486e-1	7.454673707e-2	5.411989850e-1	6.602232737e-1
2.804837167e0	-2.705566616e-1	1.384790236e-1	5.394933522e-1	6.192175903e-1
2.814819167e0	-1.663242685e-1	1.448220831e-1	4.663259733e-1	5.158460152e-1
2.824800167e0	-6.111919105e-2	1.442122185e-1	3.936164314e-1	4.236350015e-1
2.834782167e0	-1.795431420e-2	1.367728060e-1	3.890392309e-1	4.127719480e-1
2.844763167e0	-1.164867684e-2	1.201871789e-1	4.341493303e-1	4.506287725e-1
2.854744167e0	4.587725401e-3	1.178857148e-1	4.850873494e-1	4.992272284e-1
2.864726167e0	1.368920892e-2	1.381287754e-1	5.315914249e-1	5.494145940e-1
2.874707167e0	-4.121000648e-2	1.549710953e-1	5.886163956e-1	6.100684930e-1
2.884689167e0	-1.001514021e-1	1.799112242e-1	6.601412916e-1	6.915091300e-1
2.894670167e0	-1.129855288e-1	2.355463117e-1	7.600263530e-1	8.036714826e-1
2.904652167e0	-4.117506936e-2	2.359678960e-1	6.706674492e-1	7.121594356e-1
2.914633167e0	1.305777542e-1	1.230821353e-1	2.477061814e-1	3.058727092e-1
2.924615167e0	4.121189951e-1	-1.016772330e-2	-4.262924266e-1	5.930182811e-1
2.934596167e0	5.908702780e-1	-1.567404628e-2	-9.579154265e-1	1.125599985e0
2.944577167e0	6.167060541e-1	1.838019615e-1	-9.260785067e-1	1.127710477e0
2.954559167e0	5.522344351e-1	4.181051552e-1	-2.407696295e-1	7.333108526e-1
2.964540167e0	3.942320701e-1	4.470734310e-1	7.330665958e-1	9.448175547e-1
2.974522167e0	3.562483379e-1	2.633293569e-1	1.536704407e0	1.599285985e0
2.984503167e0	1.357958094e-1	2.818299472e-2	2.058713999e0	2.063380264e0
2.994485167e0	-7.324500069e-2	-2.112417752e-1	2.464184491e0	2.474306594e0
3.004466167e0	-3.280499943e-2	-4.028141016e-1	2.475739174e0	2.508509483e0
3.014448167e0	1.243603367e-1	-4.780946642e-1	1.962872872e0	2.024082487e0
3.024429167e0	3.973362838e-1	-4.105300874e-1	1.132329683e0	1.268298698e0
3.034410167e0	7.923042990e-1	-3.395934212e-1	2.339330649e-1	8.931934129e-1
3.044392167e0	1.107479163e0	-2.231168854e-1	-4.447491628e-1	1.214122341e0
3.054373167e0	1.340946351e0	-2.407193434e-1	-8.036886817e-1	1.581770658e0
3.064355167e0	1.441262645e0	-3.017414707e-1	-7.537809420e-1	1.654228411e0
3.074336167e0	1.490983420e0	-4.120872009e-1	-4.471892059e-1	1.610225327e0
3.084318167e0	1.489931505e0	-5.571618837e-1	-9.529792070e-3	1.590728158e0
3.094299167e0	1.420241173e0	-6.285511243e-1	4.462852263e-1	1.615961636e0
3.104281167e0	1.344684768e0	-6.373786658e-1	8.960840446e-1	1.737065141e0
3.114262167e0	1.275034782e0	-5.564122707e-1	1.218703583e0	1.849472015e0
3.124243167e0	1.141788066e0	-3.917611098e-1	1.363391765e0	1.820987057e0
3.134225167e0	1.001122038e0	-2.498942095e-1	1.255576710e0	1.625166246e0
3.144206167e0	8.679299936e-1	-2.148804975e-1	7.954663271e-1	1.196763460e0
3.154188167e0	7.065374860e-1	-1.622198886e-1	2.253575385e-1	7.591419706e-1
3.164169167e0	4.977806313e-1	-3.604165256e-2	-1.338380885e-1	5.167177098e-1
3.174151167e0	3.595329382e-1	4.939903200e-2	-3.331258160e-1	4.926225810e-1
3.184132167e0	3.592785113e-1	9.097507417e-2	-5.173487771e-1	6.364018148e-1
3.194114167e0	3.975092883e-1	1.093815243e-1	-6.675771958e-1	7.846255568e-1
3.204095167e0	4.724977094e-1	9.352387547e-2	-7.759775573e-1	9.133137304e-1
3.214076167e0	5.732395341e-1	1.565884352e-2	-8.803719914e-1	1.050668171e0
3.224058167e0	6.263147836e-1	-5.920305848e-2	-9.434909302e-1	1.133997507e0
3.234039167e0	5.727205937e-1	-8.484894633e-2	-9.052337676e-1	1.074549392e0
3.244021167e0	4.073549762e-1	-4.103108168e-2	-6.539566916e-1	7.715445423e-1
3.254002167e0	3.046522146e-1	-2.439750731e-2	-4.122702187e-1	5.132006854e-1
3.263984167e0	3.144271512e-1	-9.353907824e-2	-3.371253115e-1	4.703907612e-1
3.273965167e0	4.072022177e-1	-1.608300054e-1	-4.248797393e-1	6.100841987e-1
3.283947167e0	5.214888250e-1	-2.068540245e-1	-5.672278655e-1	7.978011240e-1
3.293928167e0	6.302692556e-1	-2.135081559e-1	-6.258912259e-1	9.135452336e-1
3.303909167e0	7.688498014e-1	-1.894293219e-1	-5.952091312e-1	9.905995129e-1
3.313891167e0	7.319187143e-1	-1.224126291e-1	-4.515307635e-1	8.686598221e-1
3.323872167e0	6.115277600e-1	-2.925946712e-3	-2.388476497e-1	6.565233904e-1
3.333854167e0	5.402075896e-1	9.915942192e-2	-6.369956732e-3	5.492698855e-1
3.343835167e0	5.129096440e-1	1.425317287e-1	1.967658234e-1	5.675459328e-1
3.353817167e0	4.932988136e-1	1.817905194e-1	4.674661803e-1	7.035027663e-1
3.363798167e0	5.104258930e-1	2.055606204e-1	6.444339162e-1	8.473988632e-1
3.373780167e0	5.216410719e-1	1.209098947e-1	5.745310378e-1	7.853754032e-1
3.383761167e0	3.966159799e-1	-4.593748033e-2	3.347940266e-1	5.210580849e-1
3.393743167e0	2.661686186e-1	-1.272482765e-1	2.015476763e-1	3.572944490e-1
3.403724167e0	2.454998808e-1	-1.075069070e-1	1.511242121e-1	3.076791413e-1
3.413705167e0	5.777329000e-1	-1.406547725e-2	4.858509958e-2	5.799428018e-1
3.423687167e0	7.067000386e-1	1.561007774e-1	2.219427645e-2	7.240752607e-1
3.433668167e0	5.606237277e-1	3.610030013e-1	-1.327376425e-2	6.669320234e-1
3.443650167e0	6.858269405e-1	4.328430623e-1	4.312555432e-2	8.121400879e-1
3.453631167e0	6.477534536e-1	4.707529002e-1	2.742116100e-1	8.463952013e-1
3.463612875e0	5.158597836e-1	4.158241564e-1	4.217684358e-1	7.854359674e-1
3.473593875e0	4.135813107e-1	2.700653493e-1	2.975191963e-1	5.766302677e-1
3.483575875e0	3.479936774e-1	1.147726572e-1	3.726664424e-2	3.683220943e-1
3.493556875e0	2.860102679e-1	3.919914901e-2	-1.368312782e-1	3.194702573e-1
3.503537875e0	2.348535629e-1	1.134979641e-1	-1.508417916e-1	3.013158309e-1
3.513519875e0	6.508974284e-2	2.570482779e-1	-2.086637378e-2	2.659810093e-1
3.523500875e0	-8.927265733e-2	3.593768907e-1	4.693676949e-2	3.732618615e-1
3.533482875e0	-1.693116841e-1	3.455201590e-1	-7.951277733e-2	3.929031794e-1
3.543463875e0	-8.129376613e-2	2.181110841e-1	-3.620291877e-1	4.304024328e-1
3.553445875e0	1.350971402e-1	8.236212552e-2	-6.259730870e-1	6.456601758e-1
3.563426875e0	2.498830998e-1	5.416100442e-2	-5.376853931e-1	5.953827004e-1
3.573408875e0	1.147250754e-1	3.036605269e-1	3.241082400e-1	4.587131018e-1
3.583389875e0	-1.637020846e-1	5.674933290e-1	1.714045195e0	1.812952835e0
3.593370875e0	-5.039101213e-1	5.376649278e-1	2.737178711e0	2.834635123e0
3.603352875e0	-7.557559852e-1	4.249528295e-1	3.328735086e0	3.439800763e0
3.613333875e0	-6.146236414e-1	3.444314075e-1	3.403640842e0	3.475797203e0
3.623315875e0	-2.430116712e-1	1.451717466e-1	2.670019346e0	2.684982833e0
3.633296875e0	2.156729414e-1	-6.371886313e-2	1.176077381e0	1.197385869e0
3.643278875e0	5.282087376e-1	-7.262241840e-4	-2.462139720e-1	5.827746716e-1
3.653259875e0	7.384524661e-1	2.661705190e-1	-1.025181795e0	1.291184148e0
3.663241875e0	8.328309122e-1	5.215915167e-1	-1.138583865e0	1.504007399e0
3.673222875e0	7.346012706e-1	6.844931906e-1	-7.521302730e-1	1.254539717e0
3.683203875e0	5.729923430e-1	6.811333805e-1	-1.813408685e-1	9.083762534e-1
3.693185875e0	3.972909679e-1	4.104172361e-1	3.065560681e-1	6.482738956e-1
3.703166875e0	2.709488636e-1	-1.902274668e-2	5.911710441e-1	6.505830885e-1
3.713148875e0	1.793917722e-1	-3.694709390e-1	5.764734828e-1	7.078219120e-1
3.723129875e0	2.975860007e-2	-5.186901283e-1	4.447485781e-1	6.839051990e-1
3.733111875e0	-2.364065833e-2	-4.449193168e-1	3.661818802e-1	5.767159167e-1
3.743092875e0	1.225503311e-2	-2.534820610e-1	2.908410913e-1	3.859946651e-1
3.753074875e0	3.586360484e-2	-7.802056789e-2	7.938063025e-2	1.169388371e-1
3.763055875e0	5.903699756e-2	1.577812672e-2	-2.788309103e-1	2.854487571e-1
3.773036875e0	5.819390215e-2	4.562348485e-2	-5.606631964e-1	5.655185695e-1
3.783018875e0	5.725023463e-2	1.957296968e-2	-7.130112308e-1	7.155736900e-1
3.792999875e0	3.390961155e-2	-7.464380085e-2	-7.478483570e-1	7.523288668e-1
3.802981875e0	-3.460279897e-2	-1.353490090e-1	-7.020915556e-1	7.158556142e-1
3.812962875e0	-4.052047357e-2	-1.853427029e-1	-6.612247807e-1	6.879040899e-1
3.822944875e0	-3.801333368e-2	-2.587159038e-1	-6.829384160e-1	7.312891442e-1
3.832925875e0	-5.613707095e-2	-2.998306006e-1	-7.267989653e-1	7.882172897e-1
3.842907875e0	-2.568331003e-2	-2.866965848e-1	-7.726692027e-1	8.245436683e-1
3.852888875e0	2.338798553e-2	-2.068043232e-1	-8.154398310e-1	8.415801471e-1
3.862869875e0	7.636777930e-2	-1.169805658e-1	-7.977046412e-1	8.098451612e-1
3.872851875e0	7.842892282e-2	2.385079265e-3	-7.200050855e-1	7.242679805e-1
3.882832875e0	3.557402149e-2	9.735263228e-2	-6.738097429e-1	6.817350040e-1
3.892814875e0	-4.027050510e-3	1.500635272e-1	-6.422523201e-1	6.595629780e-1
3.902795875e0	-6.566342779e-2	2.208516741e-1	-5.247355646e-1	5.730921047e-1
3.912777875e0	-1.104340231e-1	3.068566149e-1	-4.198072797e-1	5.315964707e-1
3.922758875e0	-1.075701300e-1	3.656872058e-1	-4.440024734e-1	5.851808795e-1
3.932740875e0	-9.777114674e-2	4.425739986e-1	-5.775622344e-1	7.341723748e-1
3.942721875e0	-1.411596796e-1	5.434215117e-1	-7.531389177e-1	9.393887501e-1
3.952703875e0	-2.153381883e-1	6.199106938e-1	-8.892042106e-1	1.105144304e0
3.962684875e0	-2.985220668e-1	7.296646857e-1	-8.628999263e-1	1.168812329e0
3.972665875e0	-3.812756635e-1	8.234440845e-1	-7.424180478e-1	1.172440126e0
3.982647875e0	-3.607627539e-1	8.295895082e-1	-6.197247523e-1	1.096552454e0
3.992628875e0	-2.678618992e-1	7.949383235e-1	-5.464831138e-1	1.001159692e0
4.002610875e0	-1.341849746e-1	7.724820918e-1	-5.370965785e-1	9.503719925e-1
4.012591875e0	-5.860189162e-2	7.999891484e-1	-5.162769824e-1	9.539175760e-1
4.022573875e0	-9.820398688e-4	8.599272019e-1	-4.469325131e-1	9.691359183e-1
4.032554875e0	9.790161274e-2	9.281870127e-1	-2.985395354e-1	9.799192367e-1
4.042535875e0	2.059349153e-1	1.002227381e0	-1.074127668e-1	1.028788810e0
4.052517875e0	2.670359069e-1	1.063257694e0	8.797077477e-2	1.099801781e0
4.062498875e0	1.841995722e-1	1.113254312e0	3.904215127e-1	1.194024121e0
4.072480875e0	2.106912598e-2	1.112129892e0	7.076931882e-1	1.318372654e0
4.082461875e0	-1.134966485e-1	1.028097217e0	9.934249824e-1	1.434140360e0
4.092443875e0	-2.055120154e-1	9.271011847e-1	1.191554376e0	1.523664539e0
4.102424875e0	-2.086084816e-1	8.590583056e-1	1.212182184e0	1.500294744e0
4.112406875e0	-1.009177893e-1	8.543384331e-1	9.857598674e-1	1.308358160e0
4.122387875e0	1.981053108e-1	7.965182412e-1	6.200656450e-1	1.028673139e0
4.132369875e0	4.613292351e-1	7.149606925e-1	1.791206807e-1	8.695272700e-1
4.142350875e0	5.578153832e-1	7.666477400e-1	-6.772596002e-2	9.505227849e-1
4.152331875e0	4.530440960e-1	9.130795616e-1	1.120969713e-1	1.025440866e0
4.162313875e0	1.316128941e-1	1.130710005e0	8.966611648e-1	1.449078436e0
4.172294875e0	-1.921114032e-1	1.195231106e0	1.903714253e0	2.256016876e0
4.182276875e0	-4.930098150e-1	1.028929861e0	2.541912113e0	2.786229088e0
4.192257875e0	-7.385430980e-1	6.948801845e-1	2.765994959e0	2.946019771e0
4.202239875e0	-7.171767142e-1	3.188434070e-1	2.549658505e0	2.667726007e0
4.212220875e0	-4.434580976e-1	-2.508455515e-3	1.915977618e0	1.966629505e0
4.222202875e0	2.697938193e-2	-2.232583880e-1	9.758710563e-1	1.001447210e0
4.232183875e0	5.476329687e-1	-3.268447369e-1	-3.584343195e-4	6.377534625e-1
4.242164875e0	9.866188234e-1	-3.700153148e-1	-6.428522444e-1	1.234336682e0
4.252146875e0	1.338839161e0	-3.848573023e-1	-7.860330141e-1	1.599516596e0
4.262127875e0	1.544453137e0	-5.056683791e-1	-4.910345525e-1	1.697689881e0
4.272109875e0	1.551394074e0	-7.632399827e-1	-7.040398479e-2	1.730409075e0
4.282090875e0	1.360230761e0	-1.069266293e0	1.932756203e-1	1.740951921e0
4.292072875e0	1.078516003e0	-1.326390585e0	3.585951179e-1	1.746739595e0
4.302053875e0	8.126169415e-1	-1.483929192e0	6.299638116e-1	1.805338347e0
4.312035875e0	5.622309446e-1	-1.469740339e0	9.155628741e-1	1.820575644e0
4.322016875e0	3.294463459e-1	-1.364106295e0	1.028618789e0	1.739936060e0
4.331997875e0	9.588282499e-2	-1.231932909e0	7.447195119e-1	1.442726363e0
4.341979875e0	-6.012370259e-2	-1.037202501e0	2.056196773e-1	1.059095529e0
4.351960875e0	-9.939254310e-2	-8.155234462e-1	-3.969663012e-1	9.124360872e-1
4.361942875e0	-7.340590876e-2	-6.467137456e-1	-8.777465916e-1	1.092733350e0
4.371923875e0	-3.030805562e-2	-5.233410037e-1	-1.184409079e0	1.295233280e0
4.381905875e0	-5.578419149e-2	-3.788463646e-1	-1.392253037e0	1.443954626e0
4.391886875e0	-1.640937019e-2	-2.643350780e-1	-1.433582911e0	1.457841646e0
4.401868875e0	3.457970247e-2	-2.387552637e-1	-1.401709739e0	1.422318538e0
4.411849875e0	5.804348253e-2	-2.741005129e-1	-1.346188087e0	1.375035455e0
4.421830875e0	8.320843689e-2	-3.221809977e-1	-1.244860518e0	1.288565849e0
4.431812875e0	8.751279160e-2	-3.453757328e-1	-1.096661668e0	1.153087030e0
4.441793875e0	5.865448002e-2	-3.065934902e-1	-9.316187435e-1	9.825239944e-1
4.451775875e0	9.987921417e-3	-2.498854387e-1	-7.733574200e-1	8.127879121e-1
4.461757042e0	-2.015049186e-2	-2.235940182e-1	-6.277348530e-1	6.666718631e-1
4.471739042e0	-5.983455777e-2	-2.165533859e-1	-5.187836838e-1	5.653424217e-1
4.481720042e0	-1.548170212e-1	-1.952934945e-1	-3.902852726e-1	4.630663592e-1
4.491702042e0	-2.562100429e-1	-1.913290823e-1	-2.644613779e-1	4.149580993e-1
4.501683042e0	-3.353022958e-1	-1.727548170e-1	-1.680957556e-1	4.129504080e-1
4.511665042e0	-4.117663715e-1	-1.257975823e-1	-1.254379785e-1	4.484543041e-1
4.521646042e0	-4.809615906e-1	-1.048721516e-1	-8.223290205e-2	4.990836303e-1
4.531627042e0	-5.415577482e-1	-9.014418483e-2	1.114929539e-1	5.602155366e-1
4.541609042e0	-4.851897122e-1	-9.423723578e-2	3.676752591e-1	6.160152674e-1
4.551590042e0	-3.714877168e-1	-6.855918825e-2	4.771748972e-1	6.086044434e-1
4.561572042e0	-2.699036373e-1	6.505846024e-2	4.701892287e-1	5.460389065e-1
4.571553042e0	-1.361190873e-1	2.324385166e-1	3.695919764e-1	4.573339031e-1
4.581535042e0	1.518851542e-1	3.827897269e-1	2.113125265e-1	4.628715360e-1
4.591516042e0	3.491505490e-1	5.086516285e-1	1.716719127e-1	6.403934967e-1
4.601498042e0	2.670159898e-1	5.528641802e-1	2.962871879e-1	6.817202053e-1
4.611479042e0	8.054952521e-2	4.961023343e-1	5.013431937e-1	7.098948865e-1
4.621460042e0	4.641081244e-3	4.073720062e-1	6.269793928e-1	7.477142837e-1
4.631442042e0	-7.355369713e-2	3.449067861e-1	6.182442373e-1	7.117561200e-1
4.641423042e0	-2.173365473e-1	2.980600637e-1	5.695842934e-1	6.786024194e-1
4.651405042e0	-3.585618619e-1	2.305551285e-1	4.715960687e-1	6.357083672e-1
4.661386042e0	-4.955358122e-1	8.606048942e-2	3.107719105e-1	5.912202038e-1
4.671368042e0	-4.884113453e-1	-2.267257869e-2	9.687725365e-2	4.984424644e-1
4.681349042e0	-5.388964245e-1	1.617573738e-2	1.968921232e-1	5.739664790e-1
4.691331042e0	-6.957541971e-1	2.547187471e-1	7.925608456e-1	1.084946191e0
4.701312042e0	-7.656590489e-1	5.064255935e-1	1.774298998e0	1.997708086e0
4.711293042e0	-7.169107389e-1	5.014010811e-1	2.579300380e0	2.723628921e0
4.721275042e0	-6.531822279e-1	3.382637644e-1	2.849055242e0	2.942479425e0
4.731256042e0	-5.231908764e-1	4.751038134e-2	2.464796695e0	2.520160446e0
4.741238042e0	-3.527728991e-1	-2.225345027e-1	1.547766754e0	1.602982298e0
4.751219042e0	-1.276769139e-1	-2.849394965e-1	5.555930758e-1	6.373190542e-1
4.761201042e0	2.460784627e-1	-1.962775809e-1	-1.446308792e-1	3.464066826e-1
4.771182042e0	5.369324179e-1	-4.169298649e-2	-4.620282698e-1	7.095807555e-1
4.781164042e0	6.955071522e-1	4.264082015e-2	-4.949814230e-1	8.547251298e-1
4.791145042e0	6.134770024e-1	6.806977630e-2	-2.614295965e-1	6.703230272e-1
4.801126042e0	2.150001461e-1	2.556578100e-2	1.427135772e-1	2.593180231e-1
4.811108042e0	-3.486120205e-1	-2.304177189e-1	5.391261470e-1	6.821141168e-1
4.821089042e0	-8.289172246e-1	-6.382370371e-1	7.814838803e-1	1.305820560e0
4.831071042e0	-1.129183881e0	-1.028699480e0	8.594816440e-1	1.752708634e0
4.841052042e0	-1.230218359e0	-1.256966009e0	7.439979655e-1	1.909694669e0
4.851034042e0	-1.073014651e0	-1.250117165e0	5.410440338e-1	1.734036335e0
4.861015042e0	-7.585680574e-1	-9.996013963e-1	2.580002046e-1	1.281090377e0
4.870997042e0	-3.806723039e-1	-6.104001975e-1	-1.183113921e-1	7.290386749e-1
4.880978042e0	-1.736155272e-2	-2.574517357e-1	-4.628948271e-1	5.299570178e-1
4.890959042e0	2.170494490e-1	-1.692184210e-2	-6.464570528e-1	6.821316099e-1
4.900941042e0	2.910480827e-1	3.405710757e-2	-5.801665843e-1	6.499708751e-1
4.910922042e0	2.519906556e-1	-7.466368139e-2	-3.842345738e-1	4.655213889e-1
4.920904042e0	1.976206863e-1	-2.881104416e-1	-2.746244234e-1	4.443873717e-1
4.930885042e0	2.629829825e-1	-5.396956658e-1	-4.283868992e-1	7.375274885e-1
4.940867042e0	2.529882637e-1	-7.167499405e-1	-6.769865352e-1	1.017862617e0
4.950848042e0	2.364470022e-1	-7.226515353e-1	-8.245369291e-1	1.121603127e0
4.960830042e0	2.644296567e-1	-5.982105070e-1	-9.380419099e-1	1.143547760e0
4.970811042e0	2.623348186e-1	-4.640590078e-1	-1.040050095e0	1.168706345e0
4.980793042e0	2.453211752e-1	-3.692540073e-1	-1.154759603e0	1.236931987e0
4.990774042e0	2.193491589e-1	-3.222523338e-1	-1.262486365e0	1.321299528e0
5.000755042e0	1.374584652e-1	-2.337225652e-1	-1.201825011e0	1.232032639e0
5.010737042e0	3.820994630e-2	-1.536221427e-1	-1.045825390e0	1.057738394e0
5.020718042e0	-9.341533653e-2	-1.721350121e-1	-9.256446433e-1	9.461368258e-1
5.030700042e0	-2.652462204e-1	-2.336716944e-1	-8.374405646e-1	9.089910437e-1
5.040681042e0	-5.015297198e-1	-2.179976481e-1	-7.090620214e-1	8.954462489e-1
5.050663042e0	-6.634168287e-1	-9.914363444e-2	-4.075708115e-1	7.848982834e-1
5.060644042e0	-7.570929511e-1	8.569036067e-2	-4.350679278e-2	7.631680126e-1
5.070626042e0	-7.341790286e-1	2.067867815e-1	1.837791574e-1	7.845727485e-1
5.080607042e0	-6.883784462e-1	2.239998150e-1	2.172544670e-1	7.558044097e-1
5.090588042e0	-6.951319072e-1	2.612951106e-1	1.226570427e-1	7.526807114e-1
5.100570042e0	-7.388605287e-1	3.335117322e-1	5.309271812e-3	8.106621644e-1
5.110551042e0	-7.660201876e-1	4.626597691e-1	-3.792328656e-2	8.957003770e-1
5.120533042e0	-6.982772706e-1	6.371009231e-1	-2.164112985e-2	9.454930308e-1
5.130514042e0	-5.888400516e-1	7.404592305e-1	-2.248020530e-2	9.463180428e-1
5.140496042e0	-4.706093146e-1	7.771230268e-1	-4.014522851e-2	9.093981335e-1
5.150477042e0	-3.462408649e-1	7.854067773e-1	9.496112108e-2	8.635763758e-1
5.160459042e0	-2.553507581e-1	8.002259606e-1	3.643183726e-1	9.155836796e-1
5.170440042e0	-1.929614421e-1	7.494317830e-1	6.130191654e-1	9.872561028e-1
5.180421042e0	-1.872446559e-1	6.297556508e-1	7.421116537e-1	9.911520809e-1
5.190403042e0	-1.379914754e-1	4.554969299e-1	7.463865530e-1	8.852186097e-1
5.200384042e0	9.042609371e-2	1.626993603e-1	5.737744081e-1	6.032122609e-1
5.210366042e0	3.339041169e-1	-1.504734170e-1	2.102284527e-1	4.222916183e-1
5.220347042e0	5.318286757e-1	-2.653384602e-1	-1.788867921e-1	6.206824656e-1
5.230329042e0	5.596795486e-1	-1.378381687e-1	-2.984652758e-1	6.490932743e-1
5.240310042e0	4.090253795e-1	1.798966062e-1	-8.275681257e-2	4.544372784e-1
5.250292042e0	2.024652141e-1	5.008222067e-1	3.314301234e-1	6.337672857e-1
5.260273042e0	3.718949754e-2	6.200165284e-1	6.647886586e-1	9.098063062e-1
5.270254042e0	-2.353091341e-2	6.126396811e-1	8.913887304e-1	1.081875664e0
5.280236042e0	6.544061232e-2	5.789258051e-1	1.092072773e0	1.237764316e0
5.290217042e0	2.111441267e-1	5.972901553e-1	1.305240621e0	1.450858522e0
5.300199042e0	3.963990482e-1	6.631309730e-1	1.502908670e0	1.689854835e0
5.310180042e0	5.953410590e-1	7.464233905e-1	1.578359971e0	1.844667735e0
5.320162042e0	7.017252275e-1	8.474591839e-1	1.557661997e0	1.907070072e0
5.330143042e0	6.839978584e-1	8.587963504e-1	1.395356739e0	1.775501245e0
5.340125042e0	6.304425524e-1	7.288215172e-1	1.042857928e0	1.419926503e0
5.350106042e0	6.135069694e-1	4.289640194e-1	5.975491869e-1	9.578444353e-1
5.360088042e0	6.335780487e-1	3.689885437e-2	2.017967677e-1	6.659614138e-1
5.370069042e0	7.324210632e-1	-2.991037917e-1	3.316540718e-2	7.918356119e-1
5.380050042e0	9.337943463e-1	-4.844950265e-1	1.087716597e-1	1.057609846e0
5.390032042e0	1.216151859e0	-5.296934187e-1	2.855984777e-1	1.356896072e0
5.400013042e0	1.370177167e0	-5.173517007e-1	4.630211270e-1	1.536042582e0
5.409995042e0	1.364639561e0	-4.782028377e-1	5.542745286e-1	1.548592696e0
5.419976042e0	1.296832617e0	-4.006441998e-1	6.358361703e-1	1.498858982e0
5.429958042e0	1.123656947e0	-3.482648420e-1	7.221130067e-1	1.380340729e0
5.439939042e0	8.519194400e-1	-3.228814942e-1	8.072741944e-1	1.217255444e0
5.449921042e0	5.631503096e-1	-3.777570283e-1	7.634522367e-1	1.021125830e0
5.459902125e0	3.228299656e-1	-4.812685329e-1	5.053081906e-1	7.688790249e-1
5.469883125e0	1.251826014e-1	-5.833767056e-1	1.678875947e-1	6.198268378e-1
5.479865125e0	1.045859304e-1	-7.026066953e-1	-1.588355201e-1	7.278894886e-1
5.489846125e0	2.207345836e-2	-7.581698620e-1	-4.803768325e-1	8.978143898e-1
5.499828125e0	-1.121468188e-1	-7.796671504e-1	-7.154863572e-1	1.064132746e0
5.509809125e0	-2.650205909e-1	-8.076858383e-1	-8.282428944e-1	1.186835549e0
5.519791125e0	-3.367784985e-1	-7.950412345e-1	-8.526152587e-1	1.213450906e0
5.529772125e0	-2.999090995e-1	-8.462909102e-1	-9.001864511e-1	1.271412372e0
5.539754125e0	-2.125803125e-1	-9.238559800e-1	-1.003821332e0	1.380709067e0
5.549735125e0	-1.437975413e-1	-9.163399690e-1	-1.055675610e0	1.405278501e0
5.559716125e0	-1.046502863e-1	-8.437970728e-1	-9.612395686e-1	1.283326416e0
5.569698125e0	-5.654524315e-2	-7.981958073e-1	-8.109491694e-1	1.139277169e0
5.579679125e0	-5.490429517e-2	-7.581698620e-1	-6.785851640e-1	1.018976862e0
5.589661125e0	4.406224173e-2	-6.993673378e-1	-6.087740868e-1	9.282575306e-1
5.599642125e0	1.402035502e-1	-5.839561647e-1	-5.552381498e-1	8.178943946e-1
5.609624125e0	1.550291655e-1	-4.120807689e-1	-5.035142648e-1	6.688581443e-1
5.619605125e0	9.307692893e-2	-2.268707979e-1	-4.524856138e-1	5.146619321e-1
5.629587125e0	1.064378167e-1	-5.622331738e-2	-4.241424054e-1	4.408932414e-1
5.639568125e0	1.681300349e-1	1.006837910e-1	-3.933568150e-1	4.394707252e-1
5.649550125e0	1.767857413e-1	1.855502790e-1	-3.503107828e-1	4.340503990e-1
5.659531125e0	1.495449523e-1	1.972172284e-1	-2.550894606e-1	3.554278560e-1
5.669512125e0	6.528083716e-2	2.153055900e-1	-1.061322266e-1	2.487611994e-1
5.679494125e0	-4.124297015e-2	2.454614353e-1	6.944854975e-2	2.584093649e-1
5.689475125e0	2.489225484e-2	2.607741237e-1	1.598564440e-1	3.068824704e-1
5.699457125e0	1.325432226e-1	2.773632592e-1	1.828658223e-1	3.576842076e-1
5.709438125e0	2.026839000e-1	3.379602939e-1	2.516641617e-1	4.675818365e-1
5.719420125e0	2.206527957e-1	4.059552258e-1	4.230869830e-1	6.264901410e-1
5.729401125e0	2.063780977e-1	4.523943973e-1	5.802496147e-1	7.641611252e-1
5.739383125e0	1.958875350e-1	4.361093169e-1	6.330862248e-1	7.933230305e-1
5.749364125e0	1.612480813e-1	4.143974358e-1	5.829527825e-1	7.331849188e-1
5.759345125e0	8.372631747e-2	4.285734254e-1	5.363148057e-1	6.916059919e-1
5.769327125e0	-1.003646427e-1	3.858016276e-1	5.395489007e-1	6.708419886e-1
5.779308125e0	-2.660612126e-1	3.248116601e-1	5.392875302e-1	6.834634032e-1
5.789290125e0	-2.416261369e-1	2.882115984e-1	3.882738304e-1	5.405605266e-1
5.799271125e0	1.068845440e-2	2.330852187e-1	1.123554182e-1	2.589723966e-1
5.809253125e0	2.870929530e-1	2.574172372e-1	-7.044900835e-2	3.919809439e-1
5.819234125e0	3.025713368e-1	4.272583866e-1	7.504725873e-2	5.288962411e-1
5.829216125e0	1.732692989e-1	6.226080143e-1	5.803729910e-1	8.686171758e-1
5.839197125e0	-4.101748690e-2	6.773625112e-1	1.183381723e0	1.364146146e0
5.849178125e0	-2.978067331e-1	6.287937838e-1	1.699203792e0	1.836127447e0
5.859160125e0	-4.836508347e-1	5.484770143e-1	2.003458396e0	2.132742533e0
5.869141125e0	-5.380720402e-1	3.683400875e-1	2.182138782e0	2.277482295e0
5.879123125e0	-4.194725997e-1	1.861899644e-1	2.148169382e0	2.196646458e0
5.889104125e0	-1.518203963e-1	1.236013681e-1	1.906182362e0	1.916209260e0
5.899086125e0	1.194657055e-1	1.224073666e-1	1.300369306e0	1.311570032e0
5.909067125e0	3.020679646e-1	1.867267388e-1	4.969729847e-1	6.108142743e-1
5.919049125e0	4.163017643e-1	2.440388077e-1	-1.784616995e-1	5.145004148e-1
5.929030125e0	4.298156664e-1	2.311421889e-1	-5.856933725e-1	7.623679854e-1
5.939012125e0	2.847233688e-1	1.815507835e-1	-6.340182710e-1	7.183364474e-1
5.948993125e0	6.404009454e-2	9.280759156e-2	-3.786662704e-1	3.950981234e-1
5.958974125e0	-9.224932864e-2	-7.904675424e-2	-3.222400546e-2	1.256849813e-1
5.968956125e0	-1.625094537e-1	-3.037476504e-1	1.750726533e-1	3.864225557e-1
5.978937125e0	-1.516391691e-1	-4.720205766e-1	1.959010202e-1	5.330807369e-1
5.988919125e0	-9.646349005e-2	-5.586412293e-1	1.609609830e-1	5.893162699e-1
5.998900125e0	-4.593367964e-2	-5.757390726e-1	2.198962390e-1	6.180127333e-1
6.008882125e0	-1.664718742e-2	-5.446634603e-1	4.018715304e-1	6.770791244e-1
6.018863125e0	1.751971990e-4	-4.970437360e-1	6.017322850e-1	7.804705305e-1
6.028845125e0	2.778695550e-2	-5.137164867e-1	7.162880105e-1	8.818986663e-1
6.038826125e0	-8.410854265e-4	-5.782568836e-1	7.878316176e-1	9.772719113e-1
6.048807125e0	-1.348847401e-1	-6.346538633e-1	8.035559499e-1	1.032802781e0
6.058789125e0	-2.864947097e-1	-6.850375664e-1	6.555804634e-1	9.905258352e-1
6.068770125e0	-4.614030928e-1	-6.884552640e-1	3.437303263e-1	8.972257251e-1
6.078752125e0	-6.368809216e-1	-6.788354248e-1	-5.875223815e-2	9.326771508e-1
6.088733125e0	-8.105812334e-1	-6.487082309e-1	-3.672209305e-1	1.101233634e0
6.098715125e0	-7.084157579e-1	-6.095131749e-1	-6.380294609e-1	1.131565636e0
6.108696125e0	-5.053760183e-1	-5.432887799e-1	-9.319409251e-1	1.191252075e0
6.118678125e0	-3.600945267e-1	-3.946233219e-1	-1.186101263e0	1.300858117e0
6.128659125e0	-2.625226239e-1	-2.283688545e-1	-1.320465016e0	1.365539571e0
6.138641125e0	-1.736917237e-1	-1.425551176e-1	-1.374754660e0	1.392997182e0
6.148622125e0	-1.523322286e-1	-1.369645947e-1	-1.352544011e0	1.367969192e0
6.158603125e0	-1.697439760e-1	-1.399671400e-1	-1.210279500e0	1.230113932e0
6.168585125e0	-1.284605505e-1	-1.892650151e-1	-9.886349434e-1	1.014752389e0
6.178566125e0	-7.589634754e-2	-2.109301186e-1	-7.942536145e-1	8.252821183e-1
6.188548125e0	6.182206292e-3	-1.675578117e-1	-6.271840453e-1	6.492100328e-1
6.198529125e0	2.464853559e-2	-5.004573405e-2	-4.752950174e-1	4.785577074e-1
6.208511125e0	-4.630134160e-2	9.637088478e-2	-3.694914043e-1	3.846492682e-1
6.218492125e0	-1.076491953e-1	2.220813435e-1	-3.266739982e-1	4.094195568e-1
6.228474125e0	-7.730168927e-2	3.211156350e-1	-2.958468926e-1	4.434142376e-1
6.238455125e0	-5.981632177e-2	3.459563613e-1	-4.295347077e-1	5.547646901e-1
6.248436125e0	-3.423067851e-2	3.264757776e-1	-6.144517332e-1	6.966413031e-1
6.258418125e0	-7.092484379e-2	3.265576386e-1	-7.685434073e-1	8.380508301e-1
6.268399125e0	-1.945193779e-1	2.998756242e-1	-8.494197553e-1	9.215623143e-1
6.278381125e0	-2.494666136e-1	2.507484877e-1	-8.751135904e-1	9.438920444e-1
6.288362125e0	-2.515498486e-1	2.238483721e-1	-7.942354882e-1	8.626676247e-1
6.298344125e0	-1.775087130e-1	1.842545360e-1	-6.851761454e-1	7.313859634e-1
6.308325125e0	-1.749953239e-1	1.534373707e-1	-5.204302597e-1	5.701000310e-1
6.318307125e0	-1.856229307e-1	2.017839038e-1	-3.611749095e-1	4.534533399e-1
6.328288125e0	-2.290606167e-1	3.389607525e-1	-6.317390263e-2	4.139493928e-1
6.338269125e0	-2.955930503e-1	4.609412724e-1	2.124825543e-1	5.873592971e-1
6.348251125e0	-2.838864495e-1	6.093950611e-1	4.381464869e-1	8.024501235e-1
6.358232125e0	-3.255999013e-1	7.647479796e-1	6.424487865e-1	1.050521400e0
6.368214125e0	-4.086499152e-1	9.097530806e-1	8.734740311e-1	1.325745942e0
6.378195125e0	-5.257090529e-1	1.040004487e0	1.081420900e0	1.589795743e0
6.388177125e0	-6.129439190e-1	1.085161364e0	1.198818372e0	1.729289138e0
6.398158125e0	-3.775819773e-1	9.074732512e-1	1.074093754e0	1.455937239e0
6.408140125e0	1.390616255e-1	5.612251139e-1	8.379498571e-1	1.018072555e0
6.418121125e0	4.704088647e-1	3.076138294e-1	7.586785698e-1	9.441948635e-1
6.428103125e0	5.426937891e-1	3.015198612e-1	1.038194189e0	1.209660262e0
6.438084125e0	4.286448345e-1	4.210562450e-1	1.580480171e0	1.690840716e0
6.448065125e0	2.266336202e-1	5.480051440e-1	2.106247770e0	2.188138959e0
6.458047125e0	-1.928587139e-2	5.995425028e-1	2.422002093e0	2.495178810e0
6.468028125e0	-9.990559973e-2	6.349058783e-1	2.497294934e0	2.578675744e0
6.478010125e0	1.104451329e-2	7.301131672e-1	2.326789541e0	2.438675212e0
6.487991125e0	1.930717718e-1	6.820683503e-1	1.786602125e0	1.922092894e0
6.497973125e0	4.970547361e-1	5.067740875e-1	9.530014265e-1	1.188316080e0
6.507954125e0	7.989420582e-1	3.047615576e-1	1.878850722e-1	8.754934721e-1
6.517936125e0	1.036005284e0	1.157479727e-1	-2.547795582e-1	1.073134272e0
6.527917125e0	1.202676950e0	-7.540101528e-2	-2.371344155e-1	1.228148969e0
6.537898125e0	1.289369085e0	-2.948809326e-1	1.874371755e-1	1.335874282e0
6.547880125e0	1.232997102e0	-5.107636428e-1	6.887733525e-1	1.501855547e0
6.557861125e0	1.098309340e0	-8.625730669e-1	1.058357143e0	1.752265831e0
6.567843125e0	9.481579585e-1	-1.176199588e0	1.245959795e0	1.958281082e0
6.577824125e0	6.734570096e-1	-1.344021109e0	1.336737233e0	2.011666850e0
6.587806125e0	5.245639123e-1	-1.410545467e0	1.432477788e0	2.077690647e0
6.597787125e0	4.396117260e-1	-1.323540067e0	1.306707103e0	1.911151546e0
6.607769125e0	3.973401210e-1	-1.099440849e0	9.358772707e-1	1.497503128e0
6.617750125e0	3.835641175e-1	-8.284703511e-1	3.602861327e-1	9.814737145e-1
6.627731125e0	3.699607895e-1	-5.610426807e-1	-2.580387962e-1	7.198776950e-1
6.637713125e0	4.180788062e-1	-3.854659975e-1	-7.985214972e-1	9.803114326e-1
6.647694125e0	4.995462346e-1	-3.463756067e-1	-1.250130613e0	1.390089584e0
6.657676125e0	5.363747397e-1	-3.723542011e-1	-1.583522478e0	1.712859875e0
6.667657125e0	4.796347477e-1	-3.543810296e-1	-1.787119603e0	1.883993599e0
6.677639125e0	2.915755016e-1	-3.363932401e-1	-1.864222158e0	1.916637926e0
6.687620125e0	1.684466982e-1	-3.734914845e-1	-1.772633126e0	1.819367577e0
6.697602125e0	1.932143342e-1	-4.287207752e-1	-1.707538998e0	1.771107764e0
6.707583125e0	2.412780449e-1	-4.712265247e-1	-1.664521617e0	1.746683070e0
6.717565125e0	3.082636743e-1	-5.332713300e-1	-1.581443793e0	1.697165070e0
6.727546125e0	3.336420520e-1	-5.543458647e-1	-1.392223216e0	1.535220453e0
6.737527125e0	3.198636731e-1	-6.367419040e-1	-1.205688851e0	1.400513701e0
6.747509125e0	1.930007281e-1	-6.820081240e-1	-1.099449036e0	1.308117940e0
6.757490125e0	2.492770359e-2	-6.045219916e-1	-9.710447645e-1	1.144113702e0
6.767472125e0	-4.973458908e-2	-5.436787891e-1	-8.204766226e-1	9.855161304e-1
6.777453125e0	-9.471297987e-2	-5.021150261e-1	-6.765041399e-1	8.477900090e-1
6.787435125e0	-1.025455445e-1	-4.230992621e-1	-5.263903266e-1	6.830924903e-1
6.797416125e0	-6.823232889e-2	-2.667856461e-1	-2.872473925e-1	3.979212186e-1
6.807398125e0	4.932849996e-2	-2.105640829e-2	-2.008693993e-2	5.727266707e-2
6.817379125e0	2.039241309e-1	2.685959440e-1	2.036567670e-1	3.939605451e-1
6.827360125e0	3.081546603e-1	4.812428051e-1	2.354925174e-1	6.180701076e-1
6.837342125e0	2.968647467e-1	5.946220708e-1	6.407261968e-2	6.676895877e-1
6.847323125e0	2.422457591e-1	6.528439665e-1	-1.309016168e-1	7.085361569e-1
6.857305125e0	1.596447017e-1	7.235765648e-1	-2.755038446e-1	7.905389581e-1
6.867286125e0	7.216787048e-2	8.902491081e-1	-2.907446122e-1	9.392997953e-1
6.877268125e0	4.737359304e-2	1.113951885e0	-2.389271718e-1	1.140271569e0
6.887249125e0	-3.867604248e-3	1.302036347e0	-2.152938956e-1	1.319721587e0
6.897231125e0	-7.669270176e-2	1.439238923e0	-1.578631282e-1	1.449900416e0
6.907212125e0	-8.681320880e-2	1.496811193e0	-2.219661534e-2	1.499490904e0
6.917194125e0	-1.739075956e-1	1.511210546e0	1.327253634e-1	1.526963388e0
6.927175125e0	-2.703270122e-1	1.484270670e0	2.799652702e-1	1.534443439e0
6.937156125e0	-3.761585092e-1	1.407812478e0	4.071813869e-1	1.513019458e0
6.947138125e0	-4.734650216e-1	1.387034982e0	5.680505687e-1	1.571851334e0
6.957119125e0	-5.819115396e-1	1.362784824e0	7.295734692e-1	1.651690335e0
6.967101125e0	-7.062908066e-1	1.324052868e0	8.838756430e-1	1.741608123e0
6.977082125e0	-7.482294492e-1	1.219278365e0	9.993423647e-1	1.745042178e0
6.987064125e0	-6.261022373e-1	1.036324250e0	1.002424432e0	1.571886352e0
6.997045125e0	-5.045216304e-1	8.040313286e-1	8.262981105e-1	1.258482030e0
7.007027125e0	-3.732911443e-1	6.020152903e-1	6.521358687e-1	9.628342948e-1
7.017008125e0	-2.940009632e-1	4.474207556e-1	6.301047295e-1	8.268336405e-1
7.026989125e0	-2.944909233e-1	2.759511566e-1	8.299017495e-1	9.228276429e-1
7.036971125e0	-3.201020933e-1	1.715631545e-1	1.332004496e0	1.380628569e0
7.046952125e0	-4.029806376e-1	1.196650225e-1	2.070976780e0	2.113210339e0
7.056934125e0	-5.879870890e-1	2.476471245e-2	2.771053385e0	2.832857033e0
7.066915125e0	-8.309048393e-1	-1.444934696e-1	3.143818061e0	3.254976684e0
7.076897125e0	-1.058242757e0	-4.199031740e-1	2.960493232e0	3.171863267e0
7.086878125e0	-9.896840069e-1	-7.909399974e-1	2.032948244e0	2.395399565e0
7.096860125e0	-6.486983637e-1	-1.069684369e0	8.745820785e-1	1.526410177e0
7.106841125e0	-2.593138912e-1	-1.127386447e0	3.188662112e-2	1.157264297e0
7.116823125e0	7.838700559e-2	-1.119241276e0	-4.047992313e-1	1.192773228e0
7.126804125e0	3.222558421e-1	-9.632229441e-1	-2.533224320e-1	1.046813987e0
7.136785125e0	3.765947480e-1	-7.401914281e-1	3.379819286e-1	8.966263093e-1
7.146767125e0	3.496929514e-1	-6.861795276e-1	9.955837744e-1	1.258695577e0
7.156748125e0	2.473693087e-1	-8.300917840e-1	1.379418399e0	1.628815233e0
7.166730125e0	1.124257492e-1	-1.009598381e0	1.389024205e0	1.720847663e0
7.176711125e0	-5.280309822e-3	-1.141036187e0	1.135142194e0	1.609515226e0
7.186693125e0	-1.356872705e-1	-1.165722547e0	7.783491880e-1	1.408242717e0
7.196674125e0	-1.718082624e-1	-1.126162040e0	4.113177073e-1	1.211173512e0
7.206656125e0	-1.633854214e-1	-1.012362360e0	2.427728856e-1	1.053807865e0
7.216637125e0	-1.464221920e-1	-8.755188024e-1	3.512247026e-1	9.546368018e-1
7.226618125e0	-1.767684920e-1	-7.863891095e-1	6.651681429e-1	1.045037602e0
7.236600125e0	-2.426795677e-1	-7.823901987e-1	9.222222680e-1	1.233499780e0
7.246581125e0	-2.825082973e-1	-8.847948253e-1	8.596202230e-1	1.265551164e0
7.256563125e0	-3.431241162e-1	-1.017343018e0	5.400108308e-1	1.201803924e0
7.266544125e0	-3.446802796e-1	-1.077626642e0	1.422738665e-1	1.140318170e0
7.276526125e0	-3.214476107e-1	-1.082192733e0	-2.147647226e-1	1.149170815e0
7.286507125e0	-2.405427941e-1	-1.058447190e0	-5.677085066e-1	1.224934381e0
7.296489125e0	-1.783895229e-1	-9.973636669e-1	-9.444457805e-1	1.385111887e0
7.306470125e0	-8.293299649e-2	-9.011600125e-1	-1.234961182e0	1.531044209e0
7.316451125e0	7.515331261e-2	-7.569267440e-1	-1.337595019e0	1.538748372e0
7.326433125e0	1.685497553e-1	-6.227015698e-1	-1.352594882e0	1.498559034e0
7.336414125e0	2.075298530e-1	-5.502972525e-1	-1.395997594e0	1.514828369e0
7.346396125e0	2.410422925e-1	-4.904393059e-1	-1.467624232e0	1.566062893e0
7.356377125e0	2.223962892e-1	-4.093840331e-1	-1.450745074e0	1.523718040e0
7.366359125e0	1.763857735e-1	-3.218137926e-1	-1.333823565e0	1.383387640e0
7.376340125e0	1.165802873e-1	-2.601660132e-1	-1.182758410e0	1.216632555e0
7.386322125e0	3.838117836e-2	-2.217989230e-1	-1.068196253e0	1.091655216e0
7.396303125e0	-1.432900395e-2	-2.218597341e-1	-1.011153740e0	1.035306210e0
7.406285125e0	-6.666629836e-2	-1.890410668e-1	-9.352983963e-1	9.565375113e-1
7.416266125e0	-9.396692997e-2	-8.716093540e-2	-7.366942084e-1	7.477601014e-1
7.426247125e0	-1.586924826e-1	3.654509783e-3	-5.287005615e-1	5.520153469e-1
7.436229125e0	-2.625955313e-1	9.171416223e-2	-2.703085935e-1	3.878590419e-1
7.446210125e0	-4.209260713e-1	1.452939534e-1	5.627711177e-2	4.488387280e-1
7.456192125e0	-5.510607162e-1	1.771133316e-1	4.131964177e-1	7.111739061e-1
7.466173125e0	-6.171499309e-1	2.051536542e-1	6.912461400e-1	9.490960358e-1
7.476155125e0	-5.679156442e-1	2.219948047e-1	7.990161717e-1	1.005105325e0
7.486136125e0	-4.646645600e-1	2.496170515e-1	7.508093870e-1	9.175710116e-1
7.496118125e0	-3.657493325e-1	3.260559475e-1	6.785278612e-1	8.369498871e-1
7.506099125e0	-2.488622490e-1	3.907442790e-1	6.508746243e-1	7.989063068e-1
7.516080125e0	-1.688779851e-1	4.420489186e-1	6.734010226e-1	8.230406779e-1
7.526062125e0	-1.912354354e-1	4.878928435e-1	7.420555204e-1	9.084364666e-1
7.536043125e0	-3.064007149e-1	5.367375594e-1	9.625844282e-1	1.143913190e0
7.546025125e0	-4.578835075e-1	5.391074359e-1	1.261956607e0	1.446661195e0
7.556006125e0	-5.747647072e-1	5.335824019e-1	1.507295836e0	1.699119002e0
7.565988125e0	-6.368296853e-1	5.100818574e-1	1.611299091e0	1.806106395e0
7.575969125e0	-5.429504453e-1	4.398673224e-1	1.541557011e0	1.692535514e0
7.585951125e0	-3.354515826e-1	3.200935417e-1	1.332843572e0	1.411190854e0
7.595932125e0	-7.024714236e-2	1.699873298e-1	1.138504343e0	1.153266011e0
7.605914125e0	2.455946239e-1	-1.055013120e-1	9.514489907e-1	9.882825649e-1
7.615895125e0	4.451327767e-1	-3.997109842e-1	8.598313075e-1	1.047483621e0
7.625876125e0	4.053223378e-1	-4.700968426e-1	9.562285048e-1	1.140022014e0
7.635858125e0	2.690186612e-1	-2.099267364e-1	1.434346558e0	1.474377944e0
7.645839125e0	8.633266817e-2	2.922204494e-2	2.041868171e0	2.043901388e0
7.655821125e0	-3.123104774e-2	1.665474129e-1	2.518165986e0	2.523860803e0
7.665802125e0	-7.179955071e-2	6.138406992e-2	2.283101485e0	2.285054829e0
7.675784125e0	-1.391663729e-1	-2.614950854e-1	1.353809348e0	1.385837909e0
7.685765125e0	-1.968723523e-1	-5.889017397e-1	3.738446563e-1	7.247922525e-1
7.695747125e0	-2.047818444e-1	-7.288671255e-1	-2.277724385e-2	7.574309825e-1
7.705728125e0	-1.396495905e-1	-7.333145177e-1	2.059488755e-1	7.743817724e-1
7.715709125e0	-3.238729353e-3	-6.912876552e-1	7.359837717e-1	1.009733244e0
7.725691125e0	1.416945902e-1	-6.452513570e-1	1.266948960e0	1.428840907e0
7.735672125e0	2.738107102e-1	-6.615598261e-1	1.593025957e0	1.746529533e0
7.745654125e0	2.728591673e-1	-7.601339418e-1	1.647411495e0	1.834726238e0
7.755635125e0	1.699553163e-1	-8.713392127e-1	1.509098532e0	1.750855566e0
7.765617125e0	3.353045616e-2	-9.460303760e-1	1.368916799e0	1.664341001e0
7.775598125e0	-1.898124972e-2	-9.342037976e-1	1.167524074e0	1.495396097e0
7.785580125e0	-1.271008353e-2	-8.329832321e-1	8.596482897e-1	1.197087212e0
7.795561125e0	5.788637515e-2	-6.848411000e-1	4.263520682e-1	8.087856642e-1
7.805543125e0	9.082739543e-2	-4.640069675e-1	-6.095956206e-2	4.767264938e-1
7.815524125e0	9.891131725e-2	-3.120161980e-1	-5.442664343e-1	6.351090521e-1
7.825505125e0	5.705368596e-2	-1.975943738e-1	-8.990392274e-1	9.222636239e-1
7.835487125e0	-5.897953039e-2	-1.387105733e-1	-1.138613686e0	1.148547053e0
7.845468125e0	-1.075410401e-1	-1.771133316e-1	-1.353474888e0	1.369243762e0
7.855450125e0	-1.100763015e-1	-2.650507772e-1	-1.529981278e0	1.556666765e0
7.865431125e0	-1.322390029e-1	-3.430333382e-1	-1.629426044e0	1.670385662e0
7.875413125e0	-1.191991090e-1	-4.540737176e-1	-1.658406014e0	1.723572417e0
7.885394125e0	-1.022999614e-1	-5.714425385e-1	-1.573041928e0	1.676744693e0
7.895376125e0	-1.735275266e-1	-6.282055539e-1	-1.431020077e0	1.572441567e0
7.905357125e0	-2.427054599e-1	-6.641764551e-1	-1.253768166e0	1.439434236e0
7.915338125e0	-2.550748060e-1	-6.419079190e-1	-1.038576012e0	1.247296703e0
7.925320125e0	-2.813169637e-1	-6.103271073e-1	-8.928692454e-1	1.117521320e0
7.935301125e0	-2.807928339e-1	-6.064170742e-1	-8.084471458e-1	1.048891353e0
7.945283125e0	-3.409818426e-1	-5.617770910e-1	-6.579743135e-1	9.299421026e-1
7.955264125e0	-3.848909238e-1	-4.798722178e-1	-4.546484989e-1	7.649337397e-1
7.965246125e0	-3.895439918e-1	-3.847807038e-1	-3.121582854e-1	6.302725654e-1
7.975227125e0	-3.805883963e-1	-2.734111261e-1	-2.875859463e-1	5.498243791e-1
7.985209125e0	-2.818312994e-1	-1.657480985e-1	-3.098743629e-1	4.504702368e-1
7.995190125e0	-9.634565039e-2	-3.867231488e-2	-3.261021405e-1	3.422289268e-1
8.005172125e0	1.119949739e-1	7.787848055e-2	-3.686189997e-1	3.930494865e-1
8.015153125e0	2.816564128e-1	1.243112200e-1	-4.317800385e-1	5.302995530e-1
8.025134125e0	4.532579214e-1	1.422949165e-1	-5.596358407e-1	7.340864123e-1
8.035116125e0	6.850467027e-1	1.753743696e-1	-6.406829274e-1	9.542115949e-1
8.045097125e0	8.138273151e-1	2.228099066e-1	-5.610268933e-1	1.013267155e0
8.055079125e0	8.184015188e-1	3.127377445e-1	-3.322768003e-1	9.370132415e-1
8.065060125e0	7.751148006e-1	3.768390155e-1	-5.912704468e-2	8.638903896e-1
8.075042125e0	5.923612083e-1	3.410856307e-1	1.997537506e-1	7.121325505e-1
8.085023125e0	3.921838270e-1	2.901698309e-1	5.399751627e-1	7.277223793e-1
8.095005125e0	1.765386233e-1	2.464525384e-1	9.459841830e-1	9.933734512e-1
8.104986125e0	-1.743858978e-3	1.953876346e-1	1.202513813e0	1.218285204e0
8.114968125e0	-1.687089275e-1	1.445045793e-1	1.185399013e0	1.206032792e0
8.124949125e0	-2.283370786e-1	1.238715094e-1	9.541732085e-1	9.889026666e-1
8.134930125e0	-1.731877668e-1	1.667842251e-1	6.542554843e-1	6.970374589e-1
8.144912125e0	-1.110688663e-1	2.471910417e-1	4.104447180e-1	4.918379517e-1
8.154893125e0	-1.140962074e-1	3.144737828e-1	3.450295776e-1	4.805799767e-1
8.164875125e0	-1.428652941e-1	3.067537040e-1	4.462384486e-1	5.600331063e-1
8.174856125e0	-2.388931301e-1	2.801786935e-1	8.175003898e-1	8.965918331e-1
8.184838125e0	-3.960070655e-1	2.789045852e-1	1.509849315e0	1.585640034e0
8.194819125e0	-5.413581023e-1	2.949832588e-1	2.368730450e0	2.447645330e0
8.204801125e0	-5.763098339e-1	2.363935733e-1	2.982955311e0	3.047300007e0
8.214782125e0	-5.284279716e-1	1.307636225e-1	3.014660668e0	3.063415445e0
8.224763125e0	-2.811923449e-1	-7.286040008e-2	2.287760546e0	2.306127943e0
8.234745125e0	8.959301166e-2	-2.869918692e-1	1.052894674e0	1.094978737e0
8.244726125e0	4.253357490e-1	-3.346852684e-1	-6.486491740e-2	5.450983267e-1
8.254708125e0	7.368633391e-1	-3.612912691e-1	-7.781755257e-1	1.130953629e0
8.264689125e0	8.097166494e-1	-3.945455539e-1	-1.067491078e0	1.396726333e0
8.274671125e0	5.544110611e-1	-3.981445152e-1	-9.886074615e-1	1.201347324e0
8.284652125e0	2.012159199e-1	-4.939347714e-1	-4.930600280e-1	7.263384858e-1
8.294634125e0	-8.572383597e-2	-7.217060405e-1	1.168045646e-1	7.361056251e-1
8.304615125e0	-2.974543287e-1	-9.726439780e-1	5.500686264e-1	1.156326459e0
8.314596125e0	-3.733602145e-1	-1.173075421e0	7.610309047e-1	1.447298114e0
8.324578125e0	-3.528885278e-1	-1.239364135e0	8.552459210e-1	1.546608987e0
8.334559125e0	-2.827055860e-1	-1.234113336e0	9.006226534e-1	1.553730780e0
8.344541125e0	-2.049536429e-1	-1.102172669e0	1.027172772e0	1.520484953e0
8.354522125e0	-1.519559238e-1	-9.002887774e-1	1.165347156e0	1.480420372e0
8.364504125e0	-8.160891278e-2	-7.184222442e-1	1.279730389e0	1.469864076e0
8.374485125e0	2.157501977e-2	-6.408378786e-1	1.216253015e0	1.374921840e0
8.384467125e0	1.172617986e-1	-6.692255259e-1	8.841177177e-1	1.115023440e0
8.394448125e0	1.719476454e-1	-7.206418473e-1	3.990666211e-1	8.415134181e-1
8.404430125e0	2.054106759e-1	-7.457825357e-1	-1.106059313e-1	7.814210186e-1
8.414411125e0	2.388197110e-1	-6.836628860e-1	-5.009391510e-1	8.805508669e-1
8.424392125e0	2.504759344e-1	-6.049617022e-1	-8.455424666e-1	1.069419898e0
8.434374125e0	2.796770207e-1	-5.216663611e-1	-1.164773544e0	1.306542168e0
8.444355125e0	2.968161417e-1	-4.213848585e-1	-1.391310466e0	1.483714876e0
8.454337125e0	3.088888513e-1	-3.568982559e-1	-1.503951813e0	1.576280350e0
8.464318375e0	3.222813140e-1	-2.869240415e-1	-1.438734893e0	1.502048183e0
8.474300375e0	2.975717299e-1	-2.431447685e-1	-1.249456429e0	1.307214474e0
8.484281375e0	2.747791371e-1	-2.306872755e-1	-1.060647497e0	1.119684467e0
8.494263375e0	2.022269218e-1	-2.427506661e-1	-8.979142231e-1	9.518789659e-1
8.504244375e0	9.100701459e-2	-2.449784553e-1	-7.234783316e-1	7.692318353e-1
8.514226375e0	-4.233296424e-2	-2.420794058e-1	-5.430461204e-1	5.960651034e-1
8.524207375e0	-1.566099237e-1	-2.294874269e-1	-3.950308728e-1	4.829498295e-1
8.534188375e0	-2.686673897e-1	-1.920453662e-1	-3.146959770e-1	4.561766619e-1
8.544170375e0	-3.758850788e-1	-1.316179007e-1	-2.346376544e-1	4.622420287e-1
8.554151375e0	-4.732577378e-1	-4.042940319e-2	-8.804912746e-2	4.830735678e-1
8.564133375e0	-5.446299849e-1	3.581185699e-2	9.476991713e-2	5.539726047e-1
8.574114375e0	-5.641171102e-1	5.813418746e-2	1.872290146e-1	5.972121915e-1
8.584096375e0	-4.872897397e-1	9.654922485e-2	2.149424779e-1	5.412700916e-1
8.594077375e0	-3.949574172e-1	1.619748902e-1	2.018686885e-1	4.722056690e-1
8.604059375e0	-2.506865803e-1	2.000847030e-1	9.544760942e-2	3.346459264e-1
8.614040375e0	-9.059228254e-2	3.459171849e-1	2.587743759e-2	3.585182035e-1
8.624021375e0	9.477304174e-2	6.348386353e-1	2.353562772e-1	6.836626358e-1
8.634003375e0	3.188564902e-1	9.228350562e-1	6.534450603e-1	1.174855076e0
8.643984375e0	5.758450168e-1	1.176612986e0	1.153218277e0	1.745258719e0
8.653966375e0	7.245170163e-1	1.403893089e0	1.676359890e0	2.303480669e0
8.663947375e0	7.359834793e-1	1.440311303e0	2.057384927e0	2.617059623e0
8.673929375e0	7.918543558e-1	1.196785296e0	2.025733949e0	2.482524199e0
8.683910375e0	8.868989459e-1	7.530909705e-1	1.630694890e0	2.003222797e0
8.693892375e0	8.982562121e-1	4.445088422e-1	1.473364443e0	1.781924554e0
8.703873375e0	6.599913105e-1	3.914944768e-1	1.929846629e0	2.076815944e0
8.713855375e0	2.066729801e-1	5.005865639e-1	2.806438980e0	2.858216293e0
8.723836375e0	-1.465839588e-1	5.698363084e-1	3.622268236e0	3.669744875e0
8.733817375e0	-3.309393593e-1	4.925980979e-1	3.970365263e0	4.014470583e0
8.743799375e0	-2.693506734e-1	3.524280596e-1	3.891304475e0	3.916504288e0
8.753780375e0	7.574238304e-2	1.942345637e-1	3.549827666e0	3.555944380e0
8.763762375e0	5.880282022e-1	1.435766262e-1	3.011174558e0	3.071410691e0
8.773743375e0	1.011690003e0	2.195126617e-1	2.279129471e0	2.503224644e0
8.783725375e0	1.262616173e0	2.934489495e-1	1.430749936e0	1.930636492e0
8.793706375e0	1.526135564e0	2.448252583e-1	5.486015600e-1	1.640119764e0
8.803688375e0	1.805333534e0	3.704854310e-2	-1.949678046e-1	1.816208746e0
8.813669375e0	1.957288781e0	-2.657483500e-1	-7.081709057e-1	2.098358309e0
8.823651375e0	1.899021131e0	-5.604111814e-1	-8.235078192e-1	2.144412991e0
8.833632375e0	1.681074062e0	-8.285182983e-1	-5.710215390e-1	1.959213661e0
8.843613375e0	1.416851689e0	-1.114072922e0	-1.206701589e-1	1.806429758e0
8.853595375e0	1.165848920e0	-1.353633932e0	2.951504892e-1	1.810702167e0
8.863576375e0	9.834709749e-1	-1.489692793e0	6.177238351e-1	1.888910403e0
8.873558375e0	9.039853140e-1	-1.498346672e0	8.223518246e-1	1.933518741e0
8.883539375e0	8.500562979e-1	-1.354386469e0	8.826237541e-1	1.826467385e0
8.893521375e0	7.374575624e-1	-1.176820562e0	7.443949914e-1	1.575713869e0
8.903502375e0	6.324283399e-1	-1.067086451e0	3.788919729e-1	1.296995847e0
8.913484375e0	5.650681233e-1	-1.009635803e0	-1.254140049e-1	1.163784822e0
8.923465375e0	5.267641830e-1	-9.799243462e-1	-6.742687494e-1	1.300911440e0
8.933447375e0	5.236460090e-1	-9.362263495e-1	-1.104813856e0	1.539915120e0
8.943428375e0	5.079782485e-1	-8.843065828e-1	-1.389514786e0	1.723598380e0
8.953409375e0	5.372624201e-1	-8.475235033e-1	-1.576411679e0	1.868694940e0
8.963391375e0	5.648307994e-1	-7.716623122e-1	-1.793687780e0	2.032686009e0
8.973372375e0	5.979095947e-1	-6.618878549e-1	-1.930933042e0	2.126991732e0
8.983354375e0	7.490368766e-1	-5.881071031e-1	-1.976412685e0	2.193885436e0
8.993335375e0	8.648454411e-1	-5.080365014e-1	-1.958458225e0	2.200367547e0
9.003317375e0	9.533425384e-1	-4.270274216e-1	-1.856256496e0	2.130000609e0
9.013298375e0	9.286213877e-1	-3.982912803e-1	-1.720472454e0	1.995244118e0
9.023280375e0	8.644878108e-1	-3.822675705e-1	-1.553919779e0	1.818827741e0
9.033261375e0	8.396342207e-1	-3.773067927e-1	-1.424994521e0	1.696453779e0
9.043242375e0	7.746093819e-1	-3.493424839e-1	-1.317441421e0	1.567709081e0
9.053224375e0	6.687396222e-1	-2.875760061e-1	-1.139831076e0	1.352452411e0
9.063205375e0	5.286206008e-1	-2.230812174e-1	-8.454611903e-1	1.021767877e0
9.073187375e0	4.356706296e-1	-1.874786907e-1	-5.098503077e-1	6.963508406e-1
9.083168375e0	4.440644538e-1	-1.454284394e-1	-1.882236260e-1	5.037566908e-1
9.093150375e0	4.542109810e-1	-4.278115332e-2	1.071373630e-1	4.686323259e-1
9.103131375e0	4.490378031e-1	1.106801909e-1	3.719905043e-1	5.935166287e-1
9.113113375e0	5.403843217e-1	2.018008608e-1	4.908111888e-1	7.573865760e-1
9.123094375e0	6.079181276e-1	2.849821812e-1	4.829057533e-1	8.270291772e-1
9.133076375e0	6.884907858e-1	3.739042979e-1	4.296791339e-1	8.935592562e-1
9.143057375e0	7.212225489e-1	4.493795729e-1	3.604627186e-1	9.230586856e-1
9.153038375e0	6.838108206e-1	4.672363847e-1	2.841302419e-1	8.755781358e-1
9.163020375e0	6.062108868e-1	4.513945234e-1	2.421109807e-1	7.936412174e-1
9.173001375e0	4.731528168e-1	3.547745472e-1	2.200067514e-1	6.309845783e-1
9.182983375e0	3.319173427e-1	3.771401471e-1	2.175333792e-1	5.474710805e-1
9.192964375e0	1.386988058e-1	4.286547017e-1	3.491150272e-1	5.699679940e-1
9.202946375e0	1.252506483e-1	4.095688051e-1	3.756672335e-1	5.697018530e-1
9.212927375e0	1.439352798e-1	4.747453791e-1	3.800122994e-1	6.249079032e-1
9.222909375e0	1.854581123e-1	5.355605149e-1	3.455856478e-1	6.638141431e-1
9.232890375e0	2.003976752e-1	6.088822603e-1	3.662678343e-1	7.382743132e-1
9.242871375e0	2.578633066e-1	6.947123694e-1	3.863372326e-1	8.356884697e-1
9.252853375e0	3.036074634e-1	7.189865005e-1	3.735622358e-1	8.652559296e-1
9.262834375e0	3.493715738e-1	6.705499202e-1	3.215758109e-1	8.216499828e-1
9.272816375e0	4.172030760e-1	5.513585222e-1	2.922730744e-1	7.506518345e-1
9.282797375e0	5.278547618e-1	4.504028356e-1	3.787335134e-1	7.905266839e-1
9.292779375e0	6.352852895e-1	3.934246427e-1	6.734349364e-1	1.005924929e0
9.302760375e0	7.642339363e-1	3.869798416e-1	1.154654937e0	1.437718655e0
9.312742375e0	7.992120534e-1	3.997390509e-1	1.716188784e0	1.934899263e0
9.322723375e0	6.959287365e-1	3.997460675e-1	2.237109625e0	2.376714792e0
9.332705375e0	5.773492496e-1	3.824435717e-1	2.612457601e0	2.702689393e0
9.342686375e0	5.865153448e-1	2.997159952e-1	2.744238054e0	2.822175123e0
9.352667375e0	7.031014428e-1	2.197412878e-1	2.590096094e0	2.692811848e0
9.362649375e0	9.181552371e-1	1.573760551e-1	2.193597570e0	2.383200907e0
9.372630375e0	1.145509161e0	7.955663145e-2	1.689464085e0	2.042745552e0
9.382612375e0	1.284050458e0	5.320966244e-5	1.127655419e0	1.708915541e0
9.392593375e0	1.351969230e0	-1.121548587e-1	5.588382804e-1	1.467208143e0
9.402575375e0	1.329726714e0	-2.672703803e-1	6.476843834e-2	1.357866540e0
9.412556375e0	1.136136879e0	-4.519500089e-1	-1.819741219e-1	1.236195938e0
9.422538375e0	8.583173903e-1	-6.602021027e-1	1.282294393e-3	1.082856040e0
9.432519375e0	6.109033504e-1	-8.711637962e-1	4.571201169e-1	1.158053567e0
9.442501375e0	3.994994612e-1	-1.154722180e0	8.037758052e-1	1.462545274e0
9.452482375e0	2.526907866e-1	-1.415896254e0	9.670774287e-1	1.733162885e0
9.462462875e0	2.458022549e-1	-1.604394114e0	8.825541723e-1	1.847539198e0
9.472444875e0	3.260601868e-1	-1.656136710e0	6.859052932e-1	1.821968748e0
9.482425875e0	4.753874034e-1	-1.586025086e0	4.716820228e-1	1.721613397e0
9.492407875e0	6.350672615e-1	-1.401261842e0	3.572116667e-1	1.579381319e0
9.502388875e0	7.754353742e-1	-1.150212808e0	4.448883265e-1	1.456782463e0
9.512370875e0	8.841038306e-1	-9.564349115e-1	6.393754900e-1	1.450933610e0
9.522351875e0	8.955469778e-1	-8.513616157e-1	8.066713464e-1	1.475648892e0
9.532333875e0	8.548570812e-1	-8.090681201e-1	8.100463593e-1	1.428827126e0
9.542314875e0	8.234790947e-1	-8.100153691e-1	6.443684274e-1	1.322669039e0
9.552295875e0	7.853638002e-1	-7.866317689e-1	3.371527934e-1	1.161575587e0
9.562277875e0	7.802118185e-1	-7.292612278e-1	4.937973619e-3	1.067977904e0
9.572258875e0	8.479065690e-1	-6.265104461e-1	-2.743636376e-1	1.089374267e0
9.582240875e0	9.493898937e-1	-4.878402185e-1	-4.622861320e-1	1.163201495e0
9.592221875e0	1.067748648e0	-3.440279496e-1	-5.981572974e-1	1.271312140e0
9.602203875e0	1.185865620e0	-2.183391255e-1	-7.594860703e-1	1.425050292e0
9.612184875e0	1.232208313e0	-1.648569828e-1	-9.296774679e-1	1.552357995e0
9.622166875e0	1.263655369e0	-1.438420898e-1	-1.091151837e0	1.675746929e0
9.632147875e0	1.269235367e0	-1.224132138e-1	-1.181506521e0	1.738361606e0
9.642129875e0	1.261254649e0	-1.149305320e-1	-1.198531274e0	1.743688485e0
9.652110875e0	1.259615090e0	-1.196129823e-1	-1.151589827e0	1.710875965e0
9.662091875e0	1.264272251e0	-8.433673024e-2	-1.061775425e0	1.653137641e0
9.672073875e0	1.177946371e0	-1.979282498e-2	-8.279879558e-1	1.439969952e0
9.682054875e0	1.059253667e0	1.136114001e-2	-5.550726736e-1	1.195931888e0
9.692036875e0	9.000438521e-1	-1.124653459e-2	-3.985666841e-1	9.844088693e-1
9.702017875e0	6.630599293e-1	-2.271643281e-2	-2.950329602e-1	7.260915602e-1
9.711999875e0	5.111817187e-1	7.834742725e-2	-2.610781789e-3	5.171575051e-1
9.721980875e0	5.589688195e-1	1.412622982e-1	2.602782798e-1	6.325709138e-1
9.731962875e0	6.213369758e-1	1.726215005e-1	4.093448567e-1	7.638200257e-1
9.741943875e0	7.434740549e-1	1.155018049e-1	3.149725503e-1	8.156604960e-1
9.751925875e0	7.817111177e-1	-3.655679226e-3	7.694409549e-2	7.854973134e-1
9.761906875e0	7.312139055e-1	-3.967569709e-2	-3.157671869e-2	7.329700033e-1
9.771887875e0	6.453362878e-1	-3.004357874e-2	7.050572634e-3	6.460737199e-1
9.781869875e0	5.519469713e-1	-5.459954560e-2	1.632074833e-1	5.781550416e-1
9.791850875e0	4.767253925e-1	-6.789786816e-2	4.135338020e-1	6.347341379e-1
9.801832875e0	3.205949405e-1	-2.758248568e-2	7.548884046e-1	8.206085625e-1
9.811813875e0	2.384873150e-1	-2.424547970e-2	1.077799720e0	1.104135987e0
9.821795875e0	2.894235800e-1	-2.158733547e-2	1.345796324e0	1.376735184e0
9.831776875e0	4.083460061e-1	3.554405451e-2	1.487581948e0	1.543019732e0
9.841758875e0	5.599744675e-1	1.219425130e-1	1.442829698e0	1.552481536e0
9.851739875e0	7.562183538e-1	2.502362716e-1	1.212290942e0	1.450563242e0
9.861721875e0	9.728819597e-1	3.496921474e-1	7.893513089e-1	1.300714955e0
9.871702875e0	1.184848936e0	3.741376019e-1	2.567512393e-1	1.268765993e0
9.881683875e0	1.326207567e0	3.625262010e-1	-9.548503160e-2	1.378176022e0
9.891665875e0	1.326964781e0	3.571701515e-1	-1.783693135e-2	1.374308628e0
9.901646875e0	1.228527929e0	3.902993059e-1	4.935786760e-1	1.380302260e0
9.911628875e0	1.086173590e0	4.205808663e-1	1.302243338e0	1.747140248e0
9.921609875e0	9.240969584e-1	4.131356066e-1	2.107392654e0	2.337892217e0
9.931591875e0	8.446490121e-1	3.495284253e-1	2.618178517e0	2.773168011e0
9.941572875e0	9.089854143e-1	2.979799569e-1	2.705465752e0	2.869597789e0
9.951554875e0	1.172956138e0	2.649472815e-1	2.426683373e0	2.708286425e0
9.961535875e0	1.568809275e0	2.830099154e-1	1.852358742e0	2.443867849e0
9.971516875e0	1.882818204e0	3.705643684e-1	1.199206043e0	2.262833948e0
9.981498875e0	2.084085945e0	4.928191227e-1	6.631894451e-1	2.241897668e0
9.991479875e0	2.182507010e0	5.266411722e-1	1.956478357e-1	2.253656107e0
1.000146187e1	2.249032244e0	3.630261379e-1	-2.226403373e-1	2.288996010e0
1.001144287e1	2.276742053e0	3.692165852e-2	-5.052789545e-1	2.332428864e0
1.002142487e1	2.248749824e0	-3.536817026e-1	-5.289911681e-1	2.337049031e0
1.003140588e1	2.129655928e0	-7.399791741e-1	-3.325709152e-1	2.278948653e0
1.004138787e1	1.984486813e0	-1.078002618e0	-7.465257168e-2	2.259612923e0
1.005136887e1	1.826602342e0	-1.313489873e0	1.697856009e-1	2.256226698e0
1.006135087e1	1.696498870e0	-1.443226140e0	4.253808457e-1	2.267588801e0
1.007133187e1	1.622722504e0	-1.495546440e0	6.573398906e-1	2.302603572e0
1.008131288e1	1.535889890e0	-1.471260615e0	8.230055434e-1	2.280548985e0
1.009129487e1	1.393181867e0	-1.380793079e0	8.674636781e-1	2.144770029e0
1.010127588e1	1.132972438e0	-1.250933436e0	8.087582177e-1	1.871510316e0
1.011125787e1	8.689377612e-1	-1.172221143e0	6.425207072e-1	1.594361345e0
1.012123887e1	6.680987674e-1	-1.161410810e0	3.228271151e-1	1.378204767e0
1.013122087e1	5.370138404e-1	-1.180995474e0	-1.131845534e-1	1.302284500e0
1.014120187e1	5.074164042e-1	-1.192938997e0	-5.422678560e-1	1.405215032e0
1.015118388e1	6.011345534e-1	-1.161146516e0	-9.062079138e-1	1.590860386e0
1.016116487e1	7.249345806e-1	-1.029106447e0	-1.185176818e0	1.728940229e0
1.017114687e1	8.895809175e-1	-8.523737687e-1	-1.409859003e0	1.872324133e0
1.018112787e1	1.052192423e0	-6.832810628e-1	-1.576643229e0	2.014891009e0
1.019110887e1	1.143421267e0	-5.574068820e-1	-1.605226758e0	2.048137585e0
1.020109087e1	1.156491255e0	-4.995451748e-1	-1.510652722e0	1.967000013e0
1.021107187e1	1.122214877e0	-5.216610986e-1	-1.295697965e0	1.791739308e0
1.022105388e1	1.027888764e0	-5.798929346e-1	-1.120268047e0	1.627215912e0
1.023103487e1	8.449133062e-1	-5.816880298e-1	-9.965748775e-1	1.430175145e0
1.024101687e1	7.229512051e-1	-5.633359587e-1	-8.941468620e-1	1.280431356e0
1.025099787e1	5.685544525e-1	-4.821508777e-1	-6.596027631e-1	9.953890894e-1
1.026097987e1	4.514177661e-1	-4.026772767e-1	-3.960102814e-1	7.230153053e-1
1.027096088e1	4.266986619e-1	-3.491372466e-1	-2.385856944e-1	6.007426226e-1
1.028094287e1	4.136251648e-1	-3.039423627e-1	-1.926657557e-1	5.482579960e-1
1.029092387e1	4.447567642e-1	-1.863987100e-1	-1.187657207e-1	4.966471129e-1
1.030090487e1	5.616139537e-1	-6.102738976e-3	3.857525110e-2	5.629702713e-1
1.031088687e1	7.244941391e-1	1.909782493e-1	1.622818691e-1	7.666158453e-1
1.032086787e1	9.185611801e-1	3.340964538e-1	2.206049216e-1	1.002018769e0
1.033084987e1	1.061117467e0	4.312736696e-1	2.347686321e-1	1.169223489e0
1.034083088e1	1.092470822e0	5.041252989e-1	3.194930327e-1	1.244873733e0
1.035081287e1	1.066209953e0	6.019439542e-1	5.329912484e-1	1.335372555e0
1.036079387e1	1.040025098e0	7.037100649e-1	7.791479176e-1	1.477813093e0
1.037077587e1	1.023486980e0	7.829942161e-1	9.826193279e-1	1.620538887e0
1.038075687e1	1.012847825e0	8.568907428e-1	1.145569534e0	1.752841127e0
1.039073888e1	1.042085511e0	8.963775748e-1	1.255279087e0	1.861494173e0
1.040071987e1	1.107606778e0	8.967132050e-1	1.278565038e0	1.914579825e0
1.041070087e1	1.178600455e0	8.481245971e-1	1.105733623e0	1.825119505e0
1.042068287e1	1.243344920e0	7.401382184e-1	8.811017239e-1	1.694122611e0
1.043066387e1	1.330430280e0	6.197148120e-1	7.828012580e-1	1.663390810e0
1.044064587e1	1.436268538e0	4.869169432e-1	8.355016279e-1	1.731478672e0
1.045062687e1	1.495602281e0	3.450009263e-1	9.824819183e-1	1.822394728e0
1.046060888e1	1.417382323e0	2.325911289e-1	1.064294990e0	1.787678693e0
1.047059067e1	1.279044949e0	1.508464694e-1	1.015796430e0	1.640290530e0
1.048057267e1	1.069482055e0	9.509385288e-2	1.032752185e0	1.489769037e0
1.049055367e1	9.271435770e-1	1.638003910e-1	1.225618501e0	1.545498784e0
1.050053567e1	8.799147391e-1	2.793068737e-1	1.546970363e0	1.801493709e0
1.051051667e1	8.616163163e-1	3.772114831e-1	1.758715584e0	1.994430165e0
1.052049767e1	7.979388222e-1	4.068030721e-1	1.609885234e0	1.842260994e0
1.053047967e1	7.648011893e-1	3.778242713e-1	1.100218529e0	1.392175582e0
1.054046067e1	6.998883247e-1	2.775667423e-1	3.742077684e-1	8.407844061e-1
1.055044267e1	6.155945715e-1	1.258689183e-1	-3.319125187e-1	7.106093028e-1
1.056042367e1	4.971162415e-1	-5.770149350e-2	-7.723014128e-1	9.202735963e-1
1.057040567e1	3.353650072e-1	-2.396931571e-1	-9.061921263e-1	9.955434030e-1
1.058038667e1	1.301844558e-1	-4.510208863e-1	-7.274117535e-1	8.657341922e-1
1.059036867e1	-2.729144052e-2	-6.351941460e-1	-3.049662101e-1	7.051388624e-1
1.060034967e1	-8.493343860e-2	-7.523056895e-1	2.226105165e-1	7.891343241e-1
1.061033167e1	-2.027229667e-2	-8.448133188e-1	6.366851860e-1	1.058058853e0
1.062031267e1	2.033508115e-1	-8.599400657e-1	8.893182313e-1	1.253688712e0
1.063029367e1	4.162205976e-1	-7.935016626e-1	9.719078135e-1	1.321926349e0
1.064027567e1	6.130149262e-1	-6.703131080e-1	9.247114277e-1	1.296224590e0
1.065025667e1	1.004807465e0	-3.742247254e-1	9.671417481e-1	1.443968610e0
1.066023867e1	1.391378878e0	-1.051873165e-1	8.601768780e-1	1.639177787e0
1.067021967e1	1.629772784e0	2.016751456e-1	6.859216654e-1	1.779696807e0
1.068020167e1	1.729008658e0	4.909503525e-1	6.333212829e-1	1.905675480e0
1.069018267e1	1.722526143e0	6.587876612e-1	6.083905095e-1	1.941967175e0
1.070016467e1	1.720989641e0	6.688741082e-1	5.348641115e-1	1.922310468e0
1.071014567e1	1.763411044e0	6.064673603e-1	4.253761679e-1	1.912685561e0
1.072012767e1	1.879566714e0	4.928004116e-1	2.752699560e-1	1.962497599e0
1.073010867e1	1.876488740e0	4.248241907e-1	1.689611435e-1	1.931381229e0
1.074008967e1	1.745785490e0	4.422208267e-1	-2.432441711e-2	1.801087980e0
1.075007167e1	1.566794763e0	4.329383719e-1	-3.103696221e-1	1.654874849e0
1.076005267e1	1.316483647e0	4.683175349e-1	-5.214441669e-1	1.491427010e0
1.077003467e1	1.086560603e0	4.864719701e-1	-4.978635156e-1	1.290401876e0
1.078001567e1	9.302599968e-1	4.465249622e-1	-2.953604043e-1	1.073315411e0
1.078999767e1	8.726337862e-1	3.827224839e-1	-7.660905004e-2	9.559472637e-1
1.079997867e1	1.003558938e0	3.403670079e-1	2.704892725e-1	1.093683999e0
1.080996067e1	1.178120252e0	2.623932177e-1	5.434881699e-1	1.323705753e0
1.081994167e1	1.285298984e0	3.002668029e-1	8.283235860e-1	1.558291884e0
1.082992367e1	1.160847285e0	2.012956613e-1	1.113532054e0	1.621123067e0
1.083990467e1	8.175860515e-1	8.408062220e-2	1.222368618e0	1.472990679e0
1.084988567e1	3.152004455e-1	-2.157137257e-1	1.041480909e0	1.109308891e0
1.085986767e1	-1.440270080e-1	-4.757399905e-1	7.584359103e-1	9.068061246e-1
1.086984867e1	-4.683321530e-1	-5.994992334e-1	4.862737495e-1	9.028823266e-1
1.087983067e1	-5.851375946e-1	-6.553611928e-1	1.940942305e-1	8.997537819e-1
1.088981167e1	-5.335800630e-1	-6.275535893e-1	-1.159432697e-1	8.318497658e-1
1.089979367e1	-4.938318604e-1	-3.888222992e-1	-2.807119596e-1	6.883690079e-1
1.090977467e1	-3.609157316e-1	-9.635275841e-2	-3.564801800e-1	5.163546631e-1
1.091975667e1	-2.456495695e-1	1.020841992e-1	-4.973127079e-1	5.639900922e-1
1.092973767e1	-1.934713559e-1	3.180288899e-1	-6.133857858e-1	7.175065593e-1
1.093971967e1	-8.219124064e-2	4.902662283e-1	-6.037577605e-1	7.820740426e-1
1.094970067e1	4.304018497e-2	6.230091333e-1	-4.615803730e-1	7.765624756e-1
1.095968167e1	1.489338452e-1	7.245840400e-1	-2.190203261e-1	7.714747077e-1
1.096966367e1	2.540464635e-1	7.988208747e-1	1.766613418e-1	8.566584063e-1
1.097964467e1	2.635965747e-1	8.301490867e-1	7.053238964e-1	1.120764230e0
1.098962667e1	1.992378800e-1	7.916358161e-1	1.230712595e0	1.476833264e0
1.099960767e1	1.338858895e-1	6.319787621e-1	1.561977827e0	1.690295039e0
1.100958967e1	2.075841956e-1	3.760566580e-1	1.637554843e0	1.692954717e0
1.101957067e1	3.215233321e-1	2.522599930e-1	1.366115398e0	1.425932551e0
1.102955267e1	3.883776185e-1	1.687091285e-1	9.150512427e-1	1.008275122e0
1.103953367e1	5.502888472e-1	1.219711643e-1	3.479555243e-1	6.623955217e-1
1.104951567e1	6.143556927e-1	1.584104276e-1	-6.927605689e-2	6.382209279e-1
1.105949667e1	6.462749121e-1	2.098589087e-1	-2.233706546e-1	7.152667145e-1
1.106947767e1	6.610392778e-1	1.710427523e-1	-1.612410647e-1	7.015890754e-1
1.107945967e1	5.089003544e-1	1.224640846e-1	2.488206607e-1	5.795590944e-1
1.108944067e1	2.381414522e-1	1.265840328e-1	9.559700578e-1	9.932842595e-1
1.109942267e1	-8.049664445e-2	-2.535878956e-2	1.699890840e0	1.701984620e0
1.110940367e1	-3.236151735e-1	-6.055376530e-3	2.212092313e0	2.235646629e0
1.111938567e1	-6.274094555e-1	1.513399744e-1	2.451190224e0	2.534734685e0
1.112936667e1	-6.474086872e-1	1.590992296e-1	2.555653070e0	2.641176478e0
1.113934867e1	-5.297878147e-1	2.509098709e-2	2.196396047e0	2.259526562e0
1.114932967e1	-4.611052868e-1	-8.524538755e-2	1.204784871e0	1.292823054e0
1.115931167e1	-3.391852856e-1	-7.633656979e-2	-2.305440187e-2	3.484328275e-1
1.116929267e1	-5.061550867e-2	-8.094242156e-2	-1.015225741e0	1.019704325e0
1.117927367e1	2.796582913e-1	-1.135231072e-1	-1.562363158e0	1.591249476e0
1.118925567e1	4.363174778e-1	-7.536008477e-2	-1.938589386e0	1.988512230e0
1.119923667e1	3.351396336e-1	2.700770438e-2	-1.770255064e0	1.801902045e0
1.120921867e1	1.894351691e-1	3.063531697e-2	-1.089683601e0	1.106451334e0
1.121919967e1	-7.637015473e-2	-1.400612801e-1	-2.441241771e-1	2.916267762e-1
1.122918167e1	-3.269464785e-1	-4.435715336e-1	3.949408257e-1	6.779586720e-1
1.123916267e1	-6.155758604e-1	-7.517279845e-1	7.507041371e-1	1.227837654e0
1.124914467e1	-8.931189215e-1	-9.850184405e-1	8.277300936e-1	1.566224711e0
1.125912567e1	-1.044399254e0	-1.065466188e0	7.260300565e-1	1.659249120e0
1.126910767e1	-1.088471765e0	-9.964485776e-1	3.075202739e-1	1.507398179e0
1.127908867e1	-1.055078317e0	-7.875930512e-1	-2.215083164e-1	1.335125089e0
1.128907067e1	-9.057103157e-1	-5.062607020e-1	-6.169391388e-1	1.207155738e0
1.129905167e1	-5.707946670e-1	-2.671739012e-1	-8.265653282e-1	1.039422285e0
1.130903267e1	-3.449781221e-1	-8.126109481e-2	-9.423097926e-1	1.006757675e0
1.131901467e1	-3.133435160e-1	1.195053935e-2	-1.047277254e0	1.093213895e0
1.132899567e1	-3.052799132e-1	-2.574412107e-2	-1.204490756e0	1.242842133e0
1.133897767e1	-4.359850636e-1	-8.891568482e-2	-1.240553459e0	1.317938488e0
1.134895867e1	-5.851647842e-1	-2.363754469e-1	-1.393574508e0	1.529817337e0
1.135894067e1	-6.628497219e-1	-3.410903084e-1	-1.475858281e0	1.653441870e0
1.136892167e1	-6.015042436e-1	-4.155797428e-1	-1.518165810e0	1.685034511e0
1.137890367e1	-6.005923703e-1	-3.535577416e-1	-1.406249517e0	1.569475064e0
1.138888467e1	-4.335429740e-1	-2.953902251e-1	-1.338611265e0	1.437739551e0
1.139886667e1	-4.021045420e-1	-1.861338311e-1	-1.267550054e0	1.342764687e0
1.140884767e1	-4.851031369e-1	-3.153520346e-2	-1.124168140e0	1.224774889e0
1.141882867e1	-5.165158412e-1	9.956755757e-2	-9.533306247e-1	1.088825786e0
1.142881067e1	-5.422403741e-1	1.859174842e-1	-8.133979833e-1	9.950910579e-1
1.143879167e1	-6.149306202e-1	2.826924115e-1	-6.977470744e-1	9.720625736e-1
1.144877367e1	-6.151349804e-1	3.932252526e-1	-5.447687101e-1	9.109281481e-1
1.145875467e1	-6.003318769e-1	5.353774971e-1	-3.367037272e-1	8.720073547e-1
1.146873663e1	-5.738957378e-1	7.059787846e-1	-5.379087567e-2	9.114032151e-1
1.147871762e1	-4.680777991e-1	8.641395360e-1	2.479324687e-1	1.013560296e0
1.148869962e1	-3.059283695e-1	1.022126040e0	4.538754970e-1	1.159455379e0
1.149868062e1	-1.964222994e-1	1.113087666e0	3.618496782e-1	1.186794448e0
1.150866262e1	-1.870416114e-1	1.122278320e0	1.056814063e-1	1.142655570e0
1.151864363e1	-2.301940629e-1	1.100917271e0	-1.405723268e-1	1.133476389e0
1.152862462e1	-3.022019389e-1	1.082583911e0	-2.663172841e-1	1.155092565e0
1.153860662e1	-3.950399360e-1	1.075053282e0	-2.624090052e-1	1.175012594e0
1.154858762e1	-4.807782438e-1	1.066195920e0	-1.351677454e-1	1.177366459e0
1.155856962e1	-5.579609057e-1	1.021574063e0	1.793633401e-2	1.164154479e0
1.156855063e1	-6.082569006e-1	9.000712609e-1	9.395013750e-2	1.090381291e0
1.157853262e1	-6.598644260e-1	7.830936188e-1	1.497583026e-1	1.034931991e0
1.158851362e1	-7.232005888e-1	6.604313135e-1	1.489800382e-1	9.906481027e-1
1.159849562e1	-7.384121203e-1	5.816874450e-1	9.125223219e-2	9.444255995e-1
1.160847662e1	-6.680861959e-1	5.709297377e-1	-6.438018322e-2	8.811610174e-1
1.161845862e1	-6.739793122e-1	5.904763949e-1	-3.012386101e-1	9.453333732e-1
1.162843962e1	-6.796195364e-1	5.670085949e-1	-5.321948576e-1	1.032769494e0
1.163842063e1	-6.197425863e-1	4.455625105e-1	-6.936832595e-1	1.031408400e0
1.164840262e1	-5.982911986e-1	3.070332009e-1	-6.197808856e-1	9.145217826e-1
1.165838362e1	-7.189879623e-1	2.020037591e-1	-7.125300050e-2	7.502174343e-1
1.166836562e1	-9.521462712e-1	1.247661334e-1	8.418698305e-1	1.277064572e0
1.167834662e1	-1.228514042e0	4.539427400e-2	1.728522316e0	2.121107444e0
1.168832863e1	-1.450545976e0	-4.466746509e-2	2.204610801e0	2.639391520e0
1.169830962e1	-1.534917205e0	-1.470715070e-1	2.180358304e0	2.670498678e0
1.170829163e1	-1.503411823e0	-2.183221686e-1	1.864902189e0	2.405363144e0
1.171827262e1	-1.393240924e0	-2.459315515e-1	1.440738149e0	2.019239712e0
1.172825462e1	-1.225151016e0	-2.281811589e-1	1.032973210e0	1.618670845e0
1.173823562e1	-1.053145812e0	-1.152848732e-1	6.462898225e-1	1.241006542e0
1.174821762e1	-8.485888660e-1	-3.468100548e-2	2.340406537e-1	8.809545182e-1
1.175819863e1	-6.794128373e-1	-6.673895001e-2	-2.312111861e-1	7.207735452e-1
1.176817962e1	-6.141125947e-1	-1.128910232e-1	-6.652891803e-1	9.124079984e-1
1.177816162e1	-5.827250335e-1	-1.774302506e-1	-1.037150461e0	1.202801329e0
1.178814262e1	-6.789661101e-1	-1.977773917e-1	-1.143900154e0	1.344848853e0
1.179812462e1	-8.738412362e-1	-1.812806422e-1	-8.892533273e-1	1.259854221e0
1.180810563e1	-1.076696058e0	-1.959577382e-1	-4.516465384e-1	1.183916564e0
1.181808762e1	-1.220397814e0	-2.534499013e-1	-1.157169825e-1	1.251797946e0
1.182806863e1	-1.300122845e0	-3.706468141e-1	1.263934135e-1	1.357819491e0
1.183805062e1	-1.337841479e0	-5.027149504e-1	3.991590071e-1	1.483869960e0
1.184803162e1	-1.359404841e0	-6.529761136e-1	7.443090373e-1	1.681771468e0
1.185801362e1	-1.353471964e0	-7.717932898e-1	1.073399105e0	1.892019259e0
1.186799462e1	-1.364297207e0	-8.682162148e-1	1.325091918e0	2.090687651e0
1.187797563e1	-1.412794013e0	-9.538521963e-1	1.521258402e0	2.284742450e0
1.188795762e1	-1.444549657e0	-1.049695078e0	1.608806423e0	2.403506100e0
1.189793862e1	-1.443195734e0	-1.147582730e0	1.540027379e0	2.402383062e0
1.190792062e1	-1.417848639e0	-1.188867581e0	1.368640811e0	2.301494853e0
1.191790162e1	-1.308648378e0	-1.186094831e0	1.085229192e0	2.072945712e0
1.192788363e1	-1.139620869e0	-1.149217612e0	6.424891323e-1	1.741329701e0
1.193786462e1	-9.796360785e-1	-1.072730184e0	1.433965319e-1	1.459794321e0
1.194784663e1	-9.122814167e-1	-9.395674485e-1	-2.891190863e-1	1.341131694e0
1.195782762e1	-8.255417731e-1	-8.028741646e-1	-6.084454733e-1	1.302433122e0
1.196780962e1	-7.897784480e-1	-7.126656604e-1	-8.352770948e-1	1.352527325e0
1.197779062e1	-8.035351923e-1	-6.816643077e-1	-1.005011240e0	1.456153366e0
1.198777262e1	-8.023426527e-1	-6.768280756e-1	-1.101180396e0	1.521331075e0
1.199775363e1	-8.335723391e-1	-6.653084761e-1	-1.064160504e0	1.506623972e0
1.200773462e1	-9.847117540e-1	-5.907482904e-1	-8.400361437e-1	1.422779499e0
1.201771662e1	-1.140905210e0	-5.030915111e-1	-5.174300534e-1	1.349999862e0
1.202769762e1	-1.313781064e0	-4.591660577e-1	-2.323502237e-1	1.410971573e0
1.203767962e1	-1.435434140e0	-4.786881566e-1	-9.445299804e-2	1.516091979e0
1.204766063e1	-1.570696903e0	-5.313809252e-1	-9.876765847e-2	1.661086842e0
1.205764262e1	-1.648623915e0	-5.435261768e-1	-1.587559980e-1	1.743153747e0
1.206762363e1	-1.645340703e0	-5.180106819e-1	-2.440294522e-1	1.742134171e0
1.207760562e1	-1.655310206e0	-4.336944169e-1	-2.839635962e-1	1.734582961e0
1.208758662e1	-1.719144844e0	-3.269160730e-1	-2.542954087e-1	1.768332341e0
1.209756862e1	-1.824685332e0	-2.445206183e-1	-1.141253704e-1	1.844530156e0
1.210754962e1	-1.867352465e0	-2.151769513e-1	5.541757107e-2	1.880525846e0
1.211753063e1	-1.941039661e0	-2.144472188e-1	2.410122889e-1	1.967666003e0
1.212751262e1	-2.044625864e0	-2.228847510e-1	4.820146376e-1	2.112465538e0
1.213749362e1	-2.103856258e0	-2.306375742e-1	7.125136328e-1	2.233177226e0
1.214747562e1	-2.107447034e0	-2.016739762e-1	9.246459389e-1	2.310189495e0
1.215745662e1	-2.060632763e0	-1.482210696e-1	1.053610373e0	2.319110107e0
1.216743862e1	-2.029921579e0	-6.315986931e-2	1.104111605e0	2.311629992e0
1.217741962e1	-1.977996257e0	-3.263331056e-3	1.119885054e0	2.273020540e0
1.218740163e1	-1.982636754e0	-2.638439119e-2	1.219271348e0	2.327695696e0
1.219738262e1	-2.010227279e0	-6.945088863e-2	1.477194954e0	2.495584515e0
1.220736462e1	-2.011373480e0	-1.633343679e-1	1.713444101e0	2.647299016e0
1.221734562e1	-2.051979323e0	-3.156017107e-1	1.815051752e0	2.757650530e0
1.222732662e1	-1.895121623e0	-4.022878522e-1	1.920182936e0	2.727714059e0
1.223730863e1	-1.926771286e0	-4.868210489e-1	2.039329895e0	2.847509217e0
1.224728962e1	-1.901333851e0	-6.226735032e-1	2.211563140e0	2.982248184e0
1.225727162e1	-1.788453499e0	-7.478670681e-1	2.447639794e0	3.122308702e0
1.226725262e1	-1.789490649e0	-8.759368783e-1	2.717926753e0	3.369965583e0
1.227723462e1	-1.763715976e0	-1.003469329e0	3.063265064e0	3.674403025e0
1.228721563e1	-1.730905934e0	-1.042334602e0	3.389314579e0	3.945877607e0
1.229719762e1	-1.679990865e0	-1.076881122e0	3.582810640e0	4.101045518e0
1.230717863e1	-1.661487789e0	-1.049606785e0	3.769963056e0	4.251451225e0
1.231716062e1	-1.669658542e0	-1.064202020e0	3.824360288e0	4.306508702e0
1.232714162e1	-1.682128461e0	-1.233250871e0	3.500374255e0	4.074688183e0
1.233712362e1	-1.630748684e0	-1.537167506e0	2.894401569e0	3.660571766e0
1.234710462e1	-1.399588369e0	-1.913800700e0	2.115923157e0	3.177831262e0
1.235708563e1	-1.120898815e0	-2.220569606e0	1.292094911e0	2.803007811e0
1.236706762e1	-8.434019472e-1	-2.344751018e0	6.819601768e-1	2.583457734e0
1.237704862e1	-6.843306381e-1	-2.329533640e0	3.921353316e-1	2.459431950e0
1.238703062e1	-6.383485727e-1	-2.202699346e0	4.191582388e-1	2.331323002e0
1.239701162e1	-8.665423031e-1	-2.088026676e0	6.744149297e-1	2.359149521e0
1.240699362e1	-1.113816083e0	-1.945114294e0	1.271503356e0	2.576970444e0
1.241697462e1	-1.321635190e0	-1.939413843e0	1.752240962e0	2.928889554e0
1.242695663e1	-1.465997098e0	-2.100688237e0	1.967645954e0	3.230119063e0
1.243693762e1	-1.652106809e0	-2.258583525e0	1.947002360e0	3.409028400e0
1.244691962e1	-1.703663171e0	-2.291390498e0	1.746228270e0	3.346976514e0
1.245690062e1	-1.621015555e0	-2.330644611e0	1.570969090e0	3.244617021e0
1.246688212e1	-1.452196645e0	-2.317483698e0	1.350472927e0	3.050144736e0
1.247686312e1	-1.407582975e0	-2.158176892e0	1.127034445e0	2.812334256e0
1.248684413e1	-1.309969118e0	-1.963513142e0	8.753767151e-1	2.517476384e0
1.249682612e1	-1.265283965e0	-1.812698833e0	5.965890741e-1	2.289702840e0
1.250680712e1	-1.190017582e0	-1.722717201e0	3.382783824e-1	2.120926369e0
1.251678912e1	-1.102421395e0	-1.590207015e0	2.407105726e-1	1.949880217e0
1.252677012e1	-1.039187558e0	-1.508549479e0	2.447966069e-1	1.848122747e0
1.253675213e1	-9.047013786e-1	-1.396509810e0	2.911188340e-1	1.689223020e0
1.254673312e1	-7.079530969e-1	-1.274892987e0	2.972812146e-1	1.488262691e0
1.255671512e1	-5.039972448e-1	-1.062976443e0	3.473462445e-1	1.226613857e0
1.256669612e1	-3.476793896e-1	-7.516426152e-1	5.120804358e-1	9.736908912e-1
1.257667812e1	-1.408402846e-1	-5.495172340e-1	6.003985351e-1	8.260045867e-1
1.258665913e1	-8.017552268e-2	-3.899636757e-1	5.577963066e-1	6.853003010e-1
1.259664012e1	-6.380722918e-2	-2.868170375e-1	3.336696070e-1	4.446018243e-1
1.260662213e1	-2.072844344e-1	-3.032137996e-1	4.956333876e-2	3.706237574e-1
1.261660312e1	-3.299264023e-1	-3.468907464e-1	-2.035497630e-1	5.202087339e-1
1.262658512e1	-3.953260110e-1	-3.769436806e-1	-3.838539201e-1	6.676174244e-1
1.263656612e1	-4.783600547e-1	-3.436198139e-1	-4.649495387e-1	7.503872280e-1
1.264654812e1	-5.349301485e-1	-2.808411831e-1	-4.118568206e-1	7.311963311e-1
1.265652913e1	-5.333067787e-1	-2.380413187e-1	-3.556025130e-1	6.837638020e-1
1.266651112e1	-5.740011704e-1	-2.257142186e-1	-3.377603191e-1	7.032114087e-1
1.267649212e1	-6.725245980e-1	-2.523640734e-1	-3.424141181e-1	7.957539750e-1
1.268647412e1	-7.737402664e-1	-3.142100734e-1	-3.273668933e-1	8.969788475e-1
1.269645512e1	-8.701117359e-1	-3.710450095e-1	-2.325595540e-1	9.740907443e-1
1.270643613e1	-8.789180812e-1	-4.539368927e-1	-1.203146482e-1	9.965095638e-1
1.271641812e1	-8.546167606e-1	-4.493146688e-1	-3.326071680e-2	9.661054572e-1
1.272639913e1	-7.843021651e-1	-3.792802280e-1	-1.099627376e-2	8.712659156e-1
1.273638112e1	-7.029008102e-1	-3.019385219e-1	-4.860381067e-2	7.665499008e-1
1.274636212e1	-7.658655287e-1	-1.426089120e-1	1.429112130e-1	7.920296236e-1
1.275634412e1	-8.474530444e-1	1.569509625e-2	5.118635041e-1	9.901652616e-1
1.276632512e1	-8.658619796e-1	2.347540140e-2	7.786152363e-1	1.164692985e0
1.277630713e1	-9.863926093e-1	-1.424364191e-1	8.624058366e-1	1.317953846e0
1.278628812e1	-1.101361221e0	-3.420217699e-1	9.436932439e-1	1.490145083e0
1.279627012e1	-1.152582611e0	-4.409367782e-1	1.135660842e0	1.677080042e0
1.280625112e1	-1.194784963e0	-5.054953015e-1	1.246303026e0	1.798974108e0
1.281623312e1	-1.170992204e0	-5.335917574e-1	1.186916365e0	1.750632275e0
1.282621412e1	-1.036866798e0	-5.149952728e-1	1.029051483e0	1.548954435e0
1.283619512e1	-8.453935819e-1	-4.546128309e-1	7.818142480e-1	1.237980877e0
1.284617713e1	-6.489535215e-1	-3.489799565e-1	5.896402431e-1	9.437178071e-1
1.285615812e1	-6.245033893e-1	-2.430108672e-1	4.779321116e-1	8.230904374e-1
1.286614012e1	-7.562651315e-1	-1.825541657e-1	4.304468733e-1	8.891273718e-1
1.287612112e1	-9.614838360e-1	-2.474810636e-1	3.954612279e-1	1.068684999e0
1.288610312e1	-1.118843373e0	-4.029117501e-1	4.468383729e-1	1.270359360e0
1.289608413e1	-1.161444286e0	-5.520794839e-1	6.645863450e-1	1.447556422e0
1.290606612e1	-1.228656860e0	-6.199966478e-1	1.078589678e0	1.748527729e0
1.291604712e1	-1.330391542e0	-5.002620435e-1	1.606403802e0	2.144932853e0
1.292602912e1	-1.173443942e0	-5.052783698e-1	2.074568140e0	2.436413323e0
1.293601012e1	-1.015053102e0	-3.509253252e-1	1.893420230e0	2.176814542e0
1.294599113e1	-9.493616809e-1	-2.935255480e-1	1.050274537e0	1.445863566e0
1.295597312e1	-8.481704977e-1	-3.342584217e-1	1.416891450e-1	9.226037608e-1
1.296595413e1	-7.509684312e-1	-4.547940946e-1	-4.000664949e-1	9.648028055e-1
1.297593612e1	-7.736468571e-1	-5.918452281e-1	-5.593148285e-1	1.123228966e0
1.298591712e1	-8.727839135e-1	-6.602664220e-1	-4.326939583e-2	1.095251454e0
1.299589912e1	-1.110283780e0	-7.436839700e-1	9.475155687e-1	1.638164116e0
1.300588012e1	-1.403966618e0	-9.651425850e-1	1.867421755e0	2.527822479e0
1.301586213e1	-1.581769775e0	-1.253658823e0	2.249361881e0	3.022132515e0
1.302584312e1	-1.747647389e0	-1.428895783e0	2.247391369e0	3.185401470e0
1.303582512e1	-1.739314084e0	-1.641368397e0	1.871530008e0	3.036762794e0
1.304580612e1	-1.594070562e0	-1.814340146e0	1.356118414e0	2.769828203e0
1.305578812e1	-1.512383644e0	-1.779512960e0	9.197769624e-1	2.509972176e0
1.306576912e1	-1.381017905e0	-1.676663945e0	6.384206396e-1	2.264065669e0
1.307575012e1	-1.303833196e0	-1.574363399e0	4.411975640e-1	2.091233226e0
1.308573213e1	-1.281744023e0	-1.455857295e0	2.714961630e-1	1.958596020e0
1.309571312e1	-1.284643365e0	-1.366427640e0	1.734851342e-1	1.883488827e0
1.310569512e1	-1.353404721e0	-1.352880810e0	6.395275176e-2	1.914701225e0
1.311567612e1	-1.518115231e0	-1.435486765e0	-6.836038291e-2	2.090447141e0
1.312565812e1	-1.587399474e0	-1.593277972e0	-1.204812938e-1	2.252307157e0
1.313563913e1	-1.591393269e0	-1.734874731e0	-9.668838859e-2	2.356198530e0
1.314562112e1	-1.567051017e0	-1.816379655e0	-1.040044248e-2	2.398956463e0
1.315560212e1	-1.515995615e0	-1.800396291e0	1.087593806e-1	2.356161733e0
1.316558412e1	-1.460202068e0	-1.656289322e0	2.943663776e-1	2.227585232e0
1.317556512e1	-1.342856929e0	-1.376328730e0	4.901451910e-1	1.984386004e0
1.318554612e1	-1.176295775e0	-1.070604136e0	6.459033215e-1	1.716699178e0
1.319552812e1	-1.064041221e0	-8.370675123e-1	6.310864770e-1	1.493698725e0
1.320550913e1	-9.510499182e-1	-6.894691712e-1	5.085756147e-1	1.280044078e0
1.321549112e1	-8.456944942e-1	-6.151212394e-1	2.957416427e-1	1.086755003e0
1.322547212e1	-8.061009505e-1	-5.779592603e-1	1.008141840e-1	9.969950595e-1
1.323545412e1	-8.060114881e-1	-5.121839315e-1	-1.379475117e-2	9.550796793e-1
1.324543512e1	-9.173103145e-1	-4.262129045e-1	-2.910743952e-3	1.011495984e0
1.325541713e1	-1.162944243e0	-3.690224576e-1	1.469539779e-1	1.228906977e0
1.326539812e1	-1.356149989e0	-3.796000707e-1	3.837586105e-1	1.459626554e0
1.327538013e1	-1.454930803e0	-4.099213922e-1	6.860444570e-1	1.659974755e0
1.328536112e1	-1.399134333e0	-3.959570718e-1	9.728638333e-1	1.749520769e0
1.329534312e1	-1.260250974e0	-3.585781610e-1	1.144771973e0	1.739917724e0
1.330532412e1	-1.132834883e0	-2.611226177e-1	1.139479659e0	1.627855579e0
1.331530512e1	-1.066789997e0	-9.911030531e-2	9.968456036e-1	1.463408661e0
1.332528713e1	-9.530093202e-1	9.859399617e-2	8.320453387e-1	1.268955077e0
1.333526812e1	-8.999063694e-1	2.727895671e-1	7.357598233e-1	1.193979958e0
1.334525012e1	-8.846427977e-1	3.412680638e-1	6.808123684e-1	1.167288418e0
1.335523112e1	-8.552301335e-1	3.065227389e-1	6.708820421e-1	1.129361539e0
1.336521312e1	-8.408614781e-1	2.537966412e-1	5.908424306e-1	1.058562959e0
1.337519413e1	-8.227389103e-1	1.841276515e-1	5.172341716e-1	9.891074233e-1
1.338517612e1	-7.023994115e-1	1.306355685e-1	4.976343048e-1	8.706724334e-1
1.339515712e1	-5.875311524e-1	1.781857109e-1	5.423526406e-1	8.192004574e-1
1.340513912e1	-5.048617557e-1	2.748588967e-1	6.101534450e-1	8.382839805e-1
1.341512012e1	-4.232971904e-1	3.779236740e-1	7.957756448e-1	9.773769445e-1
1.342510112e1	-3.578198137e-1	3.933650011e-1	1.061375476e0	1.187134762e0
1.343508312e1	-2.378214633e-1	2.538901967e-1	1.205824506e0	1.255002797e0
1.344506413e1	-1.494887825e-1	-1.606814861e-2	1.203117830e0	1.212475812e0
1.345504612e1	-1.514677361e-1	-2.494375420e-1	1.227628189e0	1.261836967e0
1.346502712e1	-2.597687315e-1	-3.330778688e-1	1.434931864e0	1.495810855e0
1.347500879e1	-4.739899554e-1	-3.075541878e-1	1.787025463e0	1.874224123e0
1.348498979e1	-7.311525097e-1	-2.100331557e-1	2.215134619e0	2.342118550e0
1.349497179e1	-8.867270377e-1	-6.312829435e-2	2.493348064e0	2.647084167e0
1.350495279e1	-9.870140952e-1	5.457674146e-2	2.503985903e0	2.692047705e0
1.351493479e1	-1.158700041e0	5.259979784e-2	2.160684178e0	2.452327189e0
1.352491579e1	-1.122846669e0	3.178487957e-2	1.748224509e0	2.077999965e0
1.353489779e1	-9.335249358e-1	-1.854748499e-1	1.205643243e0	1.536048617e0
1.354487879e1	-7.483053169e-1	-4.096600217e-1	5.356119704e-1	1.007304504e0
1.355485979e1	-4.474836497e-1	-6.323512298e-1	3.508914113e-3	7.746754205e-1
1.356484179e1	-3.069902238e-1	-8.588787961e-1	-3.088282961e-1	9.629593451e-1
1.357482279e1	-2.489124620e-1	-9.871111590e-1	-2.966082001e-1	1.060340643e0
1.358480479e1	-3.032901058e-1	-1.103316969e0	-2.179958940e-2	1.144451154e0
1.359478579e1	-3.672796950e-1	-1.211664705e0	3.706842363e-1	1.319254538e0
1.360476779e1	-5.006827506e-1	-1.301420050e0	7.784930295e-1	1.597006187e0
1.361474879e1	-6.224103785e-1	-1.345806849e0	1.190662091e0	1.901648487e0
1.362473079e1	-6.911055145e-1	-1.370402577e0	1.492971327e0	2.141166373e0
1.363471179e1	-6.958736265e-1	-1.388048889e0	1.564362321e0	2.204120980e0
1.364469379e1	-6.734825912e-1	-1.350395744e0	1.382445502e0	2.046534396e0
1.365467479e1	-6.359384966e-1	-1.281888596e0	1.002460100e0	1.747164101e0
1.366465679e1	-6.722616926e-1	-1.142242468e0	6.208485872e-1	1.463593730e0
1.367463779e1	-7.241680107e-1	-9.596766078e-1	3.217032802e-1	1.244544696e0
1.368461879e1	-7.771180567e-1	-8.365564656e-1	1.029308760e-1	1.146444050e0
1.369460079e1	-8.330992994e-1	-7.530441928e-1	-2.890629530e-2	1.123372411e0
1.370458179e1	-8.428559634e-1	-7.227895296e-1	-1.079220593e-1	1.115561764e0
1.371456379e1	-8.488835657e-1	-7.833181518e-1	-1.899263352e-1	1.170582183e0
1.372454479e1	-9.339450583e-1	-8.591349041e-1	-2.420185947e-1	1.291874280e0
1.373452679e1	-1.012758509e0	-9.063090706e-1	-1.808216357e-1	1.371047918e0
1.374450779e1	-1.053351634e0	-9.560489953e-1	-2.174263752e-1	1.439046064e0
1.375448979e1	-1.057991107e0	-9.622166383e-1	-3.816910350e-1	1.480166912e0
1.376447079e1	-1.121557943e0	-8.897322142e-1	-5.505615467e-1	1.533829733e0
1.377445279e1	-1.225001912e0	-7.728218150e-1	-4.970829123e-1	1.531331010e0
1.378443379e1	-1.301363332e0	-6.015153533e-1	-2.380097437e-1	1.453277634e0
1.379441579e1	-1.399887747e0	-4.931278557e-1	9.001203775e-3	1.484231049e0
1.380439679e1	-1.405977329e0	-3.994268095e-1	1.268050575e-1	1.467103796e0
1.381437779e1	-1.427859364e0	-3.465492690e-1	1.802889544e-1	1.480332013e0
1.382435979e1	-1.547450420e0	-2.795471942e-1	2.780620015e-1	1.596893206e0
1.383434079e1	-1.668357098e0	-2.027042556e-1	4.379628843e-1	1.736754419e0
1.384432279e1	-1.758938947e0	-1.870150065e-1	5.146146190e-1	1.842191369e0
1.385430379e1	-1.832180294e0	-1.722882092e-1	5.533606088e-1	1.921659652e0
1.386428579e1	-1.774659187e0	-1.180845201e-1	5.413422418e-1	1.859142438e0
1.387426679e1	-1.631561447e0	-9.654045403e-2	4.526429039e-1	1.695935852e0
1.388424879e1	-1.472401991e0	-1.165291607e-2	3.190661860e-1	1.506620936e0
1.389422979e1	-1.305454921e0	1.044078827e-1	2.355135673e-1	1.330631504e0
1.390421179e1	-1.099847523e0	2.288565123e-1	2.612617815e-1	1.153385277e0
1.391419279e1	-9.727813876e-1	3.605954504e-1	3.665338826e-1	1.100308954e0
1.392417379e1	-9.220787188e-1	4.073959798e-1	4.245721757e-1	1.093829137e0
1.393415579e1	-9.008547878e-1	4.232045120e-1	4.531130201e-1	1.093596277e0
1.394413679e1	-9.945900401e-1	4.152487904e-1	5.623208821e-1	1.215666764e0
1.395411879e1	-1.061496805e0	4.069381428e-1	7.507368815e-1	1.362343563e0
1.396409979e1	-1.122844915e0	2.901201296e-1	8.194533598e-1	1.420019085e0
1.397408179e1	-1.211210377e0	1.551272160e-1	8.481216735e-1	1.486743220e0
1.398406279e1	-1.256411985e0	3.196438909e-2	8.648458797e-1	1.525631408e0
1.399404479e1	-1.311910540e0	-3.218541384e-2	8.799235100e-1	1.580003338e0
1.400402579e1	-1.299137005e0	-4.037151575e-2	8.847082865e-1	1.572289913e0
1.401400779e1	-1.203254655e0	-3.977276087e-2	8.507347941e-1	1.474161907e0
1.402398879e1	-1.034954247e0	-1.479696393e-2	7.138666785e-1	1.257360282e0
1.403397079e1	-8.008141905e-1	1.080565453e-2	4.604881132e-1	9.238340935e-1
1.404395179e1	-6.754873091e-1	5.388560057e-2	1.654171461e-1	6.975310709e-1
1.405393279e1	-6.093982771e-1	1.082658756e-1	-3.530548811e-2	6.199469634e-1
1.406391479e1	-6.693512410e-1	1.221652919e-1	-4.351147056e-2	6.817981303e-1
1.407389579e1	-8.572237417e-1	4.620118976e-2	2.106091064e-1	8.839249340e-1
1.408387779e1	-1.111070961e0	-1.180389118e-1	7.256546652e-1	1.332286215e0
1.409385879e1	-1.152339440e0	-3.700433815e-1	1.299818498e0	1.776047977e0
1.410384079e1	-1.105872787e0	-5.502779567e-1	1.748600485e0	2.140879284e0
1.411382179e1	-1.056020595e0	-5.656613964e-1	2.033174531e0	2.359862493e0
1.412380379e1	-8.371976128e-1	-5.952535701e-1	2.177099651e0	2.407278452e0
1.413378479e1	-6.387255719e-1	-6.353099209e-1	2.101195775e0	2.286178632e0
1.414376679e1	-4.559117898e-1	-6.839891607e-1	1.538627556e0	1.744440165e0
1.415374779e1	-4.743616556e-1	-6.435188270e-1	7.232958984e-1	1.078096664e0
1.416372979e1	-5.423538101e-1	-6.455583358e-1	8.587805629e-2	8.475070860e-1
1.417371079e1	-6.525700244e-1	-6.855983144e-1	-1.936434102e-1	9.661213463e-1
1.418369179e1	-7.786861338e-1	-6.862146109e-1	-1.364079398e-1	1.046828407e0
1.419367379e1	-9.264661771e-1	-7.276029575e-1	3.183691978e-2	1.178456291e0
1.420365479e1	-1.025559672e0	-8.892007023e-1	1.254771549e-1	1.363156281e0
1.421363679e1	-1.133100200e0	-1.063074092e0	1.218495423e-1	1.558489621e0
1.422361779e1	-1.212877856e0	-1.221221395e0	5.760033667e-2	1.722141744e0
1.423359979e1	-1.196550238e0	-1.365913085e0	6.429598331e-3	1.815899878e0
1.424358079e1	-1.112977154e0	-1.488304664e0	-2.987810254e-2	1.858672004e0
1.425356279e1	-9.859107256e-1	-1.544474772e0	-4.844125807e-2	1.832967221e0
1.426354379e1	-7.314065713e-1	-1.502096491e0	-3.098439574e-2	1.670990567e0
1.427352579e1	-4.610937385e-1	-1.373717948e0	-4.031772137e-2	1.449597860e0
1.428350679e1	-2.637797387e-1	-1.249488004e0	-1.242585951e-1	1.283058932e0
1.429348879e1	-2.184918840e-1	-1.125512999e0	-1.510113609e-1	1.156426671e0
1.430346979e1	-2.055812319e-1	-1.045984434e0	-1.355203325e-1	1.074575656e0
1.431345079e1	-2.456229281e-1	-9.757617134e-1	-1.508511472e-1	1.017446614e0
1.432343279e1	-3.175754383e-1	-9.177760452e-1	-2.204464620e-1	9.958733207e-1
1.433341379e1	-3.697918050e-1	-8.950315458e-1	-3.473152542e-1	1.028812584e0
1.434339579e1	-3.359908055e-1	-9.098472208e-1	-6.476627487e-1	1.166267046e0
1.435337679e1	-2.392960946e-1	-9.111137277e-1	-9.622271633e-1	1.346577870e0
1.436335879e1	-1.686415932e-1	-8.568287623e-1	-1.118616208e0	1.419118648e0
1.437333979e1	-1.458150865e-1	-7.455235040e-1	-1.115938768e0	1.349958025e0
1.438332179e1	-5.141573668e-2	-5.792988575e-1	-1.040614936e0	1.192103263e0
1.439330279e1	7.000260998e-2	-4.148073256e-1	-9.744332260e-1	1.061360257e0
1.440328479e1	1.005306305e-1	-2.525242871e-1	-9.136274457e-1	9.531998913e-1
1.441326579e1	1.561266513e-1	-1.228254426e-1	-7.896588725e-1	8.142620926e-1
1.442324779e1	1.738761668e-1	-4.052120447e-3	-6.139482880e-1	6.381080170e-1
1.443322879e1	5.925279636e-2	1.352063370e-1	-3.243596703e-1	3.563717766e-1
1.444320979e1	-4.976872221e-2	2.437347525e-1	-3.144457161e-2	2.507435271e-1
1.445319179e1	-1.956254701e-1	3.182733035e-1	2.159522921e-1	4.315120077e-1
1.446317279e1	-4.332956368e-1	4.085098743e-1	4.453286219e-1	7.436013769e-1
1.447315504e1	-5.796629928e-1	3.758607763e-1	5.025623381e-1	8.543122451e-1
1.448313604e1	-6.544097047e-1	3.147836852e-1	4.224478823e-1	8.401208504e-1
1.449311804e1	-7.126513347e-1	3.068057442e-1	3.057257634e-1	8.339483988e-1
1.450309904e1	-6.782031946e-1	3.475409567e-1	1.905484790e-1	7.855272195e-1
1.451308104e1	-5.696297555e-1	4.602302510e-1	1.173384154e-1	7.416591171e-1
1.452306204e1	-4.361879620e-1	6.784202725e-1	1.769917095e-1	8.257360774e-1
1.453304404e1	-3.768308294e-1	8.600803989e-1	2.382512337e-1	9.687638603e-1
1.454302504e1	-3.094844998e-1	9.391867948e-1	2.843465889e-1	1.028934144e0
1.455300704e1	-2.342229407e-1	9.204821366e-1	3.654708588e-1	1.017701675e0
1.456298804e1	-2.238387242e-1	8.542162263e-1	5.188421559e-1	1.024200331e0
1.457296904e1	-2.388780552e-1	7.466730666e-1	6.123052204e-1	9.947366870e-1
1.458295104e1	-3.191269604e-1	6.135144246e-1	5.476291680e-1	8.821222544e-1
1.459293204e1	-4.639782796e-1	5.412972182e-1	4.401959360e-1	8.378848277e-1
1.460291404e1	-6.485801768e-1	5.653111482e-1	4.046963203e-1	9.507954836e-1
1.461289504e1	-8.038737461e-1	6.604067552e-1	4.508881545e-1	1.133865164e0
1.462287704e1	-8.666933805e-1	8.010855013e-1	4.895973068e-1	1.277732726e0
1.463285804e1	-8.591966654e-1	9.004390508e-1	4.996042317e-1	1.341124074e0
1.464284004e1	-8.027347085e-1	9.585001481e-1	6.139395171e-1	1.392848619e0
1.465282104e1	-7.817567260e-1	9.364046896e-1	8.110193360e-1	1.464837767e0
1.466280304e1	-7.603217105e-1	8.833037853e-1	1.138692623e0	1.629397303e0
1.467278404e1	-6.886000556e-1	8.088582051e-1	1.563183523e0	1.889964116e0
1.468276604e1	-5.540162644e-1	7.231222361e-1	1.930430766e0	2.134573196e0
1.469274704e1	-3.324265986e-1	6.254982930e-1	2.045372992e0	2.164556822e0
1.470272804e1	-1.926759884e-2	5.513526750e-1	1.929073042e0	2.006410680e0
1.471271004e1	3.149203639e-1	5.188152587e-1	1.687956088e0	1.793750223e0
1.472269104e1	5.005220984e-1	5.568964201e-1	1.533263905e0	1.706327693e0
1.473267304e1	6.107015484e-1	5.758981168e-1	1.437159653e0	1.664344583e0
1.474265404e1	7.143006150e-1	4.923080760e-1	1.237413504e0	1.511219637e0
1.475263604e1	7.808801553e-1	3.097702825e-1	7.400604504e-1	1.119562823e0
1.476261704e1	7.722009138e-1	-2.120375812e-2	-1.855906248e-3	7.724942039e-1
1.477259904e1	6.777993713e-1	-3.249052155e-1	-6.008891165e-1	9.623113410e-1
1.478258004e1	5.655391530e-1	-5.977971089e-1	-9.380039030e-1	1.247816989e0
1.479256204e1	4.644544257e-1	-8.348987800e-1	-9.964567637e-1	1.380470923e0
1.480254304e1	3.114343270e-1	-9.863586223e-1	-8.588214934e-1	1.344421448e0
1.481252504e1	1.642877564e-1	-1.071774164e0	-5.252980667e-1	1.204835418e0
1.482250604e1	5.315009393e-2	-1.152510763e0	-1.809952980e-1	1.167846433e0
1.483248704e1	2.589366361e-2	-1.221952296e0	5.957201779e-2	1.223677540e0
1.484246904e1	2.058402635e-2	-1.232153934e0	2.429465479e-1	1.256045399e0
1.485245004e1	-4.378351226e-2	-1.227063932e0	4.178437847e-1	1.296995111e0
1.486243204e1	-3.441828277e-2	-1.223172026e0	5.021056706e-1	1.322665690e0
1.487241304e1	-6.477212939e-2	-1.123430221e0	5.238584822e-1	1.241256863e0
1.488239504e1	-1.281709671e-1	-9.256165767e-1	4.908755082e-1	1.055534276e0
1.489237604e1	-2.150181263e-1	-7.270556581e-1	3.415124774e-1	8.315488541e-1
1.490235804e1	-2.686558780e-1	-5.492330593e-1	2.907469511e-2	6.121096896e-1
1.491233904e1	-2.185958914e-1	-4.247136784e-1	-4.362765473e-1	6.469181541e-1
1.492232104e1	-1.576412994e-1	-3.306237924e-1	-8.624988073e-1	9.370523273e-1
1.493230204e1	-1.220672049e-1	-2.649197996e-1	-1.094197066e0	1.132408991e0
1.494228404e1	-1.054956110e-1	-2.434026307e-1	-1.192019815e0	1.221181970e0
1.495226504e1	-1.005566141e-1	-2.526137495e-1	-1.256429234e0	1.285511478e0
1.496224604e1	-1.341219708e-1	-2.231753576e-1	-1.272204437e0	1.298576172e0
1.497222804e1	-2.116721302e-1	-1.500132412e-1	-1.212353507e0	1.239802440e0
1.498220904e1	-2.727992150e-1	-1.412780857e-1	-1.083891349e0	1.126587487e0
1.499219104e1	-3.558560628e-1	-1.561422926e-1	-9.245190543e-1	1.002870597e0
1.500217204e1	-4.056198880e-1	-1.355378741e-1	-7.882005769e-1	8.967486595e-1
1.501215404e1	-4.461461357e-1	-1.306542796e-1	-7.161342287e-1	8.537945588e-1
1.502213504e1	-4.942590726e-1	-1.506529266e-1	-6.169829929e-1	8.047709914e-1
1.503211704e1	-5.749974263e-1	-1.499395663e-1	-4.429195690e-1	7.411353847e-1
1.504209804e1	-5.994767216e-1	-1.442788768e-1	-3.079857123e-1	6.892343092e-1
1.505208004e1	-6.203030419e-1	-1.297134626e-1	-2.964953488e-1	6.996505828e-1
1.506206104e1	-5.795330019e-1	-1.133652323e-1	-3.405687368e-1	6.816870548e-1
1.507204304e1	-5.646632036e-1	-2.361573458e-2	-2.738958603e-1	6.280296002e-1
1.508202404e1	-5.193795151e-1	7.792642772e-2	-1.556634057e-1	5.477761447e-1
1.509200504e1	-3.822768530e-1	1.523842871e-1	-9.628785431e-2	4.226439567e-1
1.510198704e1	-2.434062852e-1	2.730556154e-1	-5.245771050e-2	3.695372785e-1
1.511196804e1	-1.324235009e-1	3.859700274e-1	-2.133765936e-2	4.086124587e-1
1.512195004e1	-1.075131927e-1	4.933085346e-1	-3.897753954e-2	5.063908032e-1
1.513193104e1	-1.299148992e-1	5.787591594e-1	-1.301806551e-1	6.072783947e-1
1.514191304e1	-1.894733222e-1	6.205287445e-1	-3.108824229e-1	7.194469705e-1
1.515189404e1	-2.218736943e-1	6.745926851e-1	-3.836533606e-1	8.071512424e-1
1.516187604e1	-2.716981843e-1	7.032130516e-1	-4.041098446e-1	8.553556370e-1
1.517185704e1	-2.639186832e-1	7.135971218e-1	-4.405479383e-1	8.791793956e-1
1.518183904e1	-2.468548268e-1	7.465426737e-1	-5.091433793e-1	9.367444955e-1
1.519182004e1	-2.783728541e-1	8.133365875e-1	-4.924875855e-1	9.907329976e-1
1.520180204e1	-3.687922966e-1	8.382609290e-1	-3.840369380e-1	9.930626933e-1
1.521178304e1	-4.511925752e-1	7.884069836e-1	-2.727188158e-1	9.484386455e-1
1.522176504e1	-5.080146474e-1	7.641568261e-1	-1.306022394e-1	9.268610909e-1
1.523174604e1	-5.721287823e-1	7.966924882e-1	1.104305148e-1	9.870385823e-1
1.524172704e1	-6.975628140e-1	8.817016482e-1	4.372027463e-1	1.206290975e0
1.525170904e1	-7.642622953e-1	8.650867850e-1	5.899238330e-1	1.296334112e0
1.526169004e1	-7.922908504e-1	8.260151052e-1	5.141509348e-1	1.254741778e0
1.527167204e1	-7.469171148e-1	8.204450476e-1	3.602247369e-1	1.166523516e0
1.528165304e1	-6.172388817e-1	8.231634182e-1	2.782830262e-1	1.065843935e0
1.529163504e1	-5.463800566e-1	8.999391139e-1	2.698472482e-1	1.086848247e0
1.530161604e1	-6.056490424e-1	9.964275277e-1	4.268543440e-1	1.241725900e0
1.531159804e1	-7.878755448e-1	1.035668777e0	7.697356546e-1	1.511902995e0
1.532157904e1	-1.114361336e0	9.552987975e-1	1.170713730e0	1.877489712e0
1.533156104e1	-1.344308500e0	6.859082168e-1	1.439758741e0	2.085794970e0
1.534154204e1	-1.462551041e0	3.867757738e-1	1.507923242e0	2.135997086e0
1.535152404e1	-1.567699912e0	1.929002291e-1	1.539814541e0	2.205883572e0
1.536150504e1	-1.540904462e0	9.397352636e-2	1.600679963e0	2.223824167e0
1.537148604e1	-1.363271313e0	3.357588172e-2	1.580926899e0	2.087813658e0
1.538146804e1	-1.116346100e0	7.361878395e-2	1.490564028e0	1.863713890e0
1.539144904e1	-8.790816571e-1	1.392830157e-1	1.370147638e0	1.633857053e0
1.540143104e1	-7.193372604e-1	1.407886738e-1	1.169651291e0	1.380344771e0
1.541141204e1	-6.246517624e-1	8.476767004e-2	8.296789706e-1	1.041989720e0
1.542139404e1	-5.185535228e-1	-3.372206211e-2	3.891976905e-1	6.492378422e-1
1.543137504e1	-3.739485175e-1	-1.571953762e-1	-1.001943791e-1	4.178358453e-1
1.544135704e1	-2.277361127e-1	-2.503877145e-1	-4.895937985e-1	5.951973052e-1
1.545133804e1	-1.047647821e-1	-2.835425967e-1	-7.370964968e-1	7.966701384e-1
1.546132004e1	-1.161618825e-2	-2.259732503e-1	-7.714512277e-1	8.039501492e-1
1.547130129e1	-2.806020319e-2	-1.258157086e-1	-6.223776340e-1	6.355870412e-1
1.548128329e1	-9.234218974e-2	-5.838737190e-2	-3.764437437e-1	3.919771133e-1
1.549126429e1	-1.456181450e-1	-5.491997302e-2	-1.787435353e-1	2.370023185e-1
1.550124629e1	-1.670453764e-1	-1.540799797e-1	-9.044882476e-2	2.445931066e-1
1.551122729e1	-1.787481034e-1	-2.956439942e-1	-5.670863628e-2	3.501030209e-1
1.552120829e1	-2.074758394e-1	-4.156177497e-1	2.807716012e-2	4.653736829e-1
1.553119029e1	-2.172294702e-1	-4.824642885e-1	2.412695664e-1	5.815250949e-1
1.554117129e1	-2.274127982e-1	-5.103525835e-1	4.327927762e-1	7.067431835e-1
1.555115329e1	-2.727660321e-1	-5.221417397e-1	5.308961910e-1	7.930221121e-1
1.556113429e1	-3.370176862e-1	-5.322585922e-1	4.827747756e-1	7.936949123e-1
1.557111629e1	-4.307842577e-1	-5.388004571e-1	3.181382328e-1	7.596663376e-1
1.558109729e1	-5.255681350e-1	-5.123944312e-1	8.385375023e-2	7.387837093e-1
1.559107929e1	-5.360621329e-1	-4.827046090e-1	-1.774004298e-1	7.428574981e-1
1.560106029e1	-5.711370580e-1	-5.088972116e-1	-5.058338553e-1	9.170833114e-1
1.561104229e1	-5.491187097e-1	-4.661640054e-1	-8.116315395e-1	1.085166344e0
1.562102329e1	-5.236770358e-1	-4.424991542e-1	-1.112321096e0	1.306637425e0
1.563100529e1	-4.450581881e-1	-4.272648185e-1	-1.375708925e0	1.507715843e0
1.564098629e1	-3.620450483e-1	-3.906887305e-1	-1.563135576e0	1.651395510e0
1.565096729e1	-2.603654033e-1	-3.400360554e-1	-1.635266828e0	1.690417777e0
1.566094929e1	-1.967015040e-1	-2.809955496e-1	-1.569533599e0	1.606575768e0
1.567093029e1	-1.445441211e-1	-2.392142701e-1	-1.476657595e0	1.502875285e0
1.568091229e1	-1.534968661e-1	-2.106289870e-1	-1.396849533e0	1.420955480e0
1.569089329e1	-3.088715655e-1	-2.107213730e-1	-1.309198017e0	1.361544927e0
1.570087529e1	-5.167693911e-1	-2.299125195e-1	-1.127276520e0	1.261214780e0
1.571085629e1	-6.203442648e-1	-2.296417934e-1	-9.621365315e-1	1.167591138e0
1.572083829e1	-6.214113086e-1	-1.555762821e-1	-8.452506906e-1	1.060568114e0
1.573081929e1	-5.063351444e-1	-2.770878553e-2	-8.183494055e-1	9.627246775e-1
1.574080129e1	-4.543974341e-1	1.740534836e-1	-6.858702099e-1	8.409456511e-1
1.575078229e1	-3.986532960e-1	4.492041564e-1	-3.680231684e-1	7.043790720e-1
1.576076429e1	-2.405629304e-1	5.666864133e-1	-2.173649794e-1	6.528794290e-1
1.577074529e1	-1.143572856e-1	5.570975643e-1	-2.441183299e-1	6.188934027e-1
1.578072629e1	-2.423447963e-2	5.770201975e-1	-3.195287007e-1	6.600289455e-1
1.579070829e1	-1.313286828e-1	5.200677323e-1	-3.611205304e-1	6.466264042e-1
1.580068929e1	-2.504424591e-1	4.479592842e-1	-3.227762443e-1	6.062783597e-1
1.581067129e1	-4.485208362e-1	4.182168370e-1	-2.352323163e-1	6.568184725e-1
1.582065229e1	-6.656704187e-1	4.400503403e-1	-6.050230980e-2	8.002636677e-1
1.583063429e1	-8.020904915e-1	4.911918426e-1	1.774904770e-1	9.571423364e-1
1.584061529e1	-8.302931475e-1	5.987583911e-1	4.789922118e-1	1.130191073e0
1.585059729e1	-6.848650736e-1	6.606757271e-1	6.568206578e-1	1.156263794e0
1.586057829e1	-4.462891732e-1	7.594398773e-1	7.243443042e-1	1.140437471e0
1.587056029e1	-2.490872207e-1	8.538039976e-1	7.685743976e-1	1.175471103e0
1.588054129e1	-6.199948937e-2	9.287126774e-1	8.584232980e-1	1.266191823e0
1.589052329e1	8.312193464e-2	1.004365708e0	9.468922555e-1	1.382846584e0
1.590050429e1	1.681973875e-1	1.051086715e0	1.080390036e0	1.516679357e0
1.591048529e1	2.130329235e-1	1.052677742e0	1.181391916e0	1.596621531e0
1.592046729e1	2.708181053e-1	1.002779943e0	1.254874460e0	1.628993545e0
1.593044829e1	2.855602515e-1	9.136362165e-1	1.338931108e0	1.645907745e0
1.594043029e1	1.932398061e-1	8.163215911e-1	1.414758970e0	1.644769135e0
1.595041129e1	8.251941562e-2	6.783927906e-1	1.383420818e0	1.543009848e0
1.596039329e1	3.743625004e-2	5.082043165e-1	1.129816550e0	1.239418629e0
1.597037429e1	1.083276733e-1	3.222827393e-1	6.751206887e-1	7.559027670e-1
1.598035629e1	2.250711711e-1	2.025960821e-1	1.712327868e-1	3.478834170e-1
1.599033729e1	3.468451746e-1	1.465160215e-1	-1.823612076e-1	4.183588528e-1
1.600031929e1	4.965095563e-1	1.441595936e-1	-3.449389458e-1	6.215195928e-1
1.601030029e1	5.977861454e-1	1.565948671e-1	-2.878198349e-1	6.816967694e-1
1.602028229e1	5.509351838e-1	1.911560047e-1	-2.733339429e-2	5.837956057e-1
1.603026329e1	4.321674531e-1	1.520375472e-1	3.183382076e-1	5.578739442e-1
1.604024529e1	2.327859143e-1	-4.678357244e-3	5.740030342e-1	6.194276812e-1
1.605022629e1	-4.934238710e-2	-2.305884576e-1	6.256602609e-1	6.686228160e-1
