"Time (s)"	"Linear Acceleration x (m/s^2)"	"Linear Acceleration y (m/s^2)"	"Linear Acceleration z (m/s^2)"	"Absolute acceleration (m/s^2)"
1.283852700E-1	2.591004848E0	-5.163497925E-1	-3.099786043E-1	2.660077061E0
1.467244370E-1	3.593895912E0	-3.966665268E-1	7.886557579E-1	3.700731018E0
1.650635510E-1	4.036388874E0	2.915830612E-1	1.963035822E0	4.497884554E0
1.834027180E-1	3.909866810E0	7.510070801E-1	3.027153730E0	5.001472764E0
2.017418840E-1	3.179895163E0	-4.952697754E-1	5.673458576E0	6.522664916E0
2.200809990E-1	2.289291859E0	-2.306745529E0	7.190473557E0	7.890807444E0
2.384201660E-1	1.820315719E0	-1.599905014E0	4.080890656E0	4.746252618E0
2.567593320E-1	1.213720560E0	-2.248544693E-1	1.880879641E0	2.249752287E0
2.750984990E-1	1.158159018E0	1.005860329E0	-1.560304463E-1	1.541892607E0
2.934248530E-1	1.265464783E0	1.710757256E0	-1.242861629E0	2.464304472E0
3.117767800E-1	1.159294844E0	1.335586548E0	-6.416468620E-1	1.881347033E0
3.301159470E-1	6.519585848E-1	4.343910217E-1	-4.473260045E-2	7.846952030E-1
3.484550620E-1	4.298788607E-1	-2.273616791E-1	1.108166575E0	1.210174503E0
3.667942280E-1	7.152602077E-1	-8.847236633E-1	1.503051758E0	1.885072336E0
3.851333950E-1	1.044846058E0	-1.018369675E0	1.788564205E0	2.308190199E0
4.034725620E-1	1.308492661E0	-7.256956100E-1	2.350528479E0	2.786354480E0
4.218116760E-1	1.089504838E0	-3.917350769E-1	2.547450542E0	2.798210398E0
4.401508430E-1	5.471384525E-1	-8.048725128E-2	1.935079336E0	2.012553284E0
4.584771970E-1	1.116648912E-1	1.691875458E-1	8.052546978E-1	8.303785895E-1
4.768291240E-1	-2.383100986E-1	3.033914566E-1	8.527185023E-2	3.951067799E-1
4.951682910E-1	-2.608963847E-1	5.721282959E-2	7.942063808E-1	8.379164677E-1
5.135074570E-1	-1.789306998E-1	-3.467741013E-1	1.856593966E0	1.897158304E0
5.318466240E-1	-2.534925938E-2	-8.662796021E-1	2.689932346E0	2.826096064E0
5.501857390E-1	5.896162987E-2	-1.278831482E0	3.054712057E0	3.312122006E0
5.685249050E-1	-8.053731918E-2	-1.308775902E0	2.930359364E0	3.210356152E0
5.868640720E-1	-3.966322541E-1	-9.802265167E-1	2.512321711E0	2.725788243E0
6.052032390E-1	-7.830541730E-1	-4.710683823E-1	2.127640724E0	2.315585090E0
6.235423530E-1	-1.173792124E0	9.162425995E-2	2.166762829E0	2.465977314E0
6.418815200E-1	-1.155583262E0	7.389564514E-1	2.496220112E0	2.848252826E0
6.602206870E-1	-5.569201112E-1	1.287497520E0	3.141837597E0	3.440778017E0
6.785598530E-1	2.527034283E-1	1.556649208E0	2.767382622E0	3.185187962E0
6.968989680E-1	6.375518441E-1	1.491749763E0	1.903212309E0	2.500801232E0
7.152381340E-1	5.954940319E-1	1.063254356E0	1.200314522E0	1.710519781E0
7.335773010E-1	6.541761160E-1	1.271762848E-1	4.706635475E-1	8.158703164E-1
7.519164680E-1	4.897428155E-1	-1.021451950E0	2.471551001E-1	1.159438552E0
7.702555820E-1	5.439034104E-2	-2.246196747E0	1.285017371E0	2.588363919E0
7.885819890E-1	-3.397839963E-1	-3.456359863E0	2.721517324E0	4.412316083E0
8.069339160E-1	-1.489450455E0	-2.878686905E0	2.929283857E0	4.368753240E0
8.252730820E-1	-2.639032364E0	9.967098236E-1	-6.245890260E-2	2.821670322E0
8.435994370E-1	6.058112979E-1	4.487699509E0	-5.315381527E0	6.982817124E0
8.619513640E-1	2.807165146E0	6.381913185E0	-3.402489662E0	7.757959007E0
8.802905300E-1	2.490193844E0	4.615220070E0	-1.941802263E0	5.592129979E0
8.986168840E-1	1.224256754E0	6.173543930E-1	-2.273364544E0	2.654829071E0
9.169688640E-1	-6.993385553E-1	-1.917150974E0	-1.109126091E0	2.322649986E0
9.353079780E-1	-1.968024611E0	-3.934470654E0	9.860250354E-1	4.508372829E0
9.536343840E-1	-1.840120077E0	-6.406578064E0	2.803218365E0	7.231066145E0
9.719863120E-1	-1.413580894E0	-8.017025948E0	4.438973904E0	9.272292344E0
9.903254780E-1	-5.047506094E-2	-8.309226990E0	4.542773247E0	9.470089211E0
1.008651832E0	1.352740765E0	-7.459927559E0	2.803300858E0	8.083249499E0
1.027003759E0	1.650560617E0	-6.249853134E0	1.179635286E0	6.570886847E0
1.045342926E0	1.136384487E0	-4.422003746E0	-4.886332750E-1	4.591758847E0
1.063669332E0	1.320647955E0	-1.522987366E0	-1.081959248E0	2.287845570E0
1.082021259E0	2.358790398E0	1.192580223E0	3.347880840E-1	2.664249010E0
1.100360374E0	3.432988167E0	2.971742630E0	2.551566839E0	5.208373580E0
1.118686780E0	2.266353369E0	8.692197800E-1	3.828535318E0	4.533164822E0
1.137038707E0	-5.740004778E-1	2.519657135E0	1.540105820E0	3.008334184E0
1.155377874E0	-1.535729885E0	3.928221703E0	-1.530223608E0	4.486755656E0
1.173704228E0	9.320228696E-1	2.256229401E0	1.234415770E0	2.735510927E0
1.192056155E0	2.594290018E0	2.864381790E0	4.502467155E0	5.933568422E0
1.210395322E0	2.214445829E0	7.767010689E0	6.252067566E0	1.021364647E1
1.228721728E0	-9.800839424E-1	1.065313816E1	5.546936035E0	1.205066042E1
1.247073655E0	-2.313282490E0	5.998569489E0	4.620407104E0	7.917213752E0
1.265412822E0	-2.247265339E0	5.883391380E0	5.375539303E0	8.280152078E0
1.283739176E0	-1.828047395E0	9.372230530E0	5.919527054E0	1.123482367E1
1.302091103E0	-1.957560658E0	1.411612701E1	5.929592133E0	1.543558060E1
1.320430270E0	-1.902818918E0	1.713640976E1	3.356984138E0	1.756549464E1
1.338756624E0	-2.482231855E-1	1.504105663E1	1.055841565E0	1.508011276E1
1.357108551E0	2.406825781E0	1.028933144E1	4.929833412E-1	1.057857194E1
1.375447718E0	4.451415062E0	5.765304565E0	-8.118303418E-1	7.328908602E0
1.393774124E0	4.116727352E0	9.710340500E-1	-1.952878714E0	4.658764481E0
1.412126051E0	1.475605845E0	-2.959268570E0	-1.368667603E0	3.578817415E0
1.430465166E0	-1.973617822E-1	-7.016283989E0	-1.370220780E-1	7.020396551E0
1.448791572E0	-1.495644569E0	-1.064488983E1	1.938794851E-1	1.075119628E1
1.467143499E0	-2.855124950E0	-1.417957687E1	1.235139966E0	1.451680783E1
1.485482666E0	-2.863359928E0	-1.784350204E1	2.380845785E0	1.822794069E1
1.503809020E0	-2.020499229E0	-1.938632774E1	4.398406744E-1	1.949629658E1
1.522160947E0	-8.160538077E-1	-1.823485947E1	-1.137861848E0	1.828854213E1
1.540500114E0	-2.212609053E-1	-1.363256359E1	-8.362699747E-1	1.365998148E1
1.558826520E0	-1.060704470E0	-9.863757133E0	-9.721625447E-1	9.968144199E0
1.577178447E0	-2.255233049E0	-6.384910107E0	-1.950026035E0	7.046683952E0
1.595517562E0	-2.382856131E0	-4.582136154E0	-1.724360704E0	5.444942141E0
1.613843968E0	-8.336577415E-1	-4.779065132E0	-2.774473131E-1	4.859158958E0
1.632195895E0	7.476184368E-1	-6.551939011E0	4.182091057E-1	6.607702852E0
1.650535062E0	1.033110380E0	-8.831326485E0	1.146548033E0	8.965166866E0
1.668861416E0	6.991268396E-1	-1.074420547E1	1.762627363E0	1.091025136E1
1.687213343E0	1.241582632E-1	-1.152309704E1	2.090765715E0	1.171189489E1
1.705552509E0	-8.843886852E-1	-9.561515808E0	1.372533679E0	9.699926628E0
1.723878864E0	-1.296733975E0	-6.090493202E0	-5.670602918E-1	6.252774090E0
1.742230843E0	-9.872002155E-2	-1.402790070E0	-2.238485813E0	2.643555250E0
1.760569957E0	2.581742048E0	9.089089394E0	2.062111616E0	9.671051769E0
1.778896364E0	5.590741634E0	3.270259094E1	8.059566498E0	3.414194573E1
1.797248291E0	-1.378852487E0	2.600870323E1	1.252886868E1	2.890201426E1
1.815587457E0	-6.850252151E0	5.726186752E0	3.509668827E0	9.593380246E0
1.833913812E0	-4.681815147E0	5.814201355E0	-4.361740351E-1	7.477605115E0
1.852265739E0	-6.855964661E-3	1.873700333E1	2.552895069E0	1.891011935E1
1.870604905E0	3.754518509E0	2.076295853E1	6.336820602E0	2.203070928E1
1.888931259E0	4.706512451E0	1.690204620E1	5.447981834E0	1.837147058E1
1.907283187E0	9.556429386E-1	1.542730808E1	6.592443466E0	1.680402925E1
1.925622353E0	-1.762424946E0	1.256731796E1	5.550277710E0	1.385096405E1
1.943948707E0	-1.642271638E0	7.373029709E0	1.779039025E0	7.760386786E0
1.962300634E0	-5.336092114E-1	4.012631416E0	-2.803351879E0	4.923893930E0
1.980639801E0	2.022000849E-1	5.666551590E-1	-2.481834888E0	2.553720297E0
1.998966155E0	-6.133060455E-1	-3.353156567E0	-1.251993179E0	3.631430873E0
2.017318134E0	-8.334778547E-1	-7.623492718E0	5.193165541E-1	7.686482696E0
2.035657249E0	-1.044718146E0	-1.136734772E1	2.804011822E0	1.175459537E1
2.053983655E0	-1.287324548E0	-1.537362480E1	4.294947624E0	1.601412249E1
2.072335582E0	-2.270480156E0	-1.785416603E1	2.699719906E0	1.819930802E1
2.090674697E0	-3.452530384E0	-1.857474327E1	-4.516075850E-1	1.889828043E1
2.109001103E0	-3.044957399E0	-1.681861305E1	-2.199004412E0	1.723290837E1
2.127353030E0	-1.411396027E0	-1.299749470E1	-2.139620304E0	1.324782557E1
2.145692145E0	-4.211398959E-1	-9.631915092E0	-1.350665212E0	9.735268033E0
2.164018551E0	3.805708885E-1	-7.205735207E0	-9.187656641E-1	7.274034947E0
2.182370478E0	1.024832487E0	-5.850375175E0	-4.008916616E-1	5.952972824E0
2.200709645E0	8.400315046E-1	-5.406427383E0	4.733023047E-2	5.471503462E0
2.219048759E0	2.970964015E-1	-6.223767281E0	-2.001158893E-1	6.234067036E0
2.237387926E0	-7.450524569E-1	-7.132681847E0	3.651181459E-1	7.180777447E0
2.255727093E0	-1.466439247E0	-8.147533417E0	6.982801557E-1	8.307848098E0
2.274053447E0	-2.114558458E0	-8.527967453E0	-3.012760878E-1	8.791379507E0
2.292405374E0	-2.732722998E0	-6.678160667E0	-1.468894005E0	7.363644103E0
2.310744541E0	-1.809445143E0	-3.394959927E0	-1.739473104E0	4.222038762E0
2.329070895E0	6.044409275E-1	-7.254362106E-1	1.168355942E-1	9.514499916E-1
2.347422822E0	3.033624649E0	4.583667755E0	1.487087250E0	5.694235426E0
2.365761989E0	4.019021988E0	2.225253677E1	5.457948685E0	2.326192456E1
2.384088343E0	-2.097119808E0	3.493249512E1	1.184238338E1	3.694481250E1
2.402440270E0	-5.140582085E0	1.611608505E1	6.355675697E0	1.807065010E1
2.420779437E0	-5.316872120E0	9.925877571E0	3.817869425E0	1.188984027E1
2.439105791E0	-4.248823166E0	1.820969391E1	5.610571384E0	1.952239642E1
2.457457718E0	8.729774952E-1	2.090031815E1	6.052093983E0	2.177643749E1
2.475796884E0	3.624461412E0	1.692024040E1	5.327520847E0	1.810562714E1
2.494123239E0	4.411074162E0	1.363278961E1	-3.863705397E-1	1.433386933E1
2.512475166E0	2.606787205E0	1.262247086E1	-4.711537361E0	1.372299874E1
2.530814332E0	-1.351961195E-1	8.023891449E0	-2.782011032E0	8.493567999E0
2.549140687E0	-1.635981083E0	2.212578773E0	-1.149702311E0	2.982239819E0
2.567492614E0	-2.949188948E0	-2.609470844E0	1.685988188E0	4.283644442E0
2.585831780E0	-3.426992893E0	-8.716584206E0	5.654473782E0	1.094057559E1
2.604158134E0	-2.312495232E0	-1.510395718E1	8.781543732E0	1.762363943E1
2.622510062E0	-1.798623800E0	-1.943168449E1	8.493215561E0	2.128285978E1
2.640849228E0	-2.824662209E0	-2.128871918E1	3.688066483E0	2.178967910E1
2.659175582E0	-3.085966110E0	-2.192189026E1	-2.816272259E0	2.231644794E1
2.677527509E0	-2.393424511E0	-1.807356262E1	-4.191038609E0	1.870686910E1
2.695866676E0	-9.510126114E-1	-1.234718513E1	-2.732957840E0	1.268173743E1
2.714193030E0	-7.377228737E-1	-9.186883926E0	-1.422948122E0	9.325655616E0
2.732544957E0	-1.185852408E0	-5.226552010E0	-6.433340311E-1	5.397867219E0
2.750884124E0	-1.492761731E0	-1.616936684E0	2.792039216E-1	2.218282366E0
2.769210478E0	-4.215574861E-1	-2.119761944E0	3.059599698E-1	2.182822236E0
2.787562405E0	3.820673823E-1	-4.931811333E0	-4.821753800E-1	4.970033360E0
2.805901572E0	-1.083322763E-1	-6.847277641E0	1.691113561E-1	6.850222305E0
2.824227926E0	-2.549055815E-1	-8.752737999E0	4.382467270E-1	8.767408940E0
2.842579853E0	-1.807510853E-3	-1.121862507E1	-4.043256342E-1	1.122590891E1
2.860918968E0	-1.502272189E-1	-1.241124916E1	-1.534345448E-1	1.241310663E1
2.879245374E0	-4.937215447E-1	-9.590517044E0	-2.969535887E-1	9.607807220E0
2.897597301E0	-6.757645011E-1	-5.490784645E0	-1.777044535E0	5.810616229E0
2.915936416E0	-1.845438242E0	2.305746078E0	1.562000871E0	3.340951063E0
2.934262822E0	1.416265130E0	3.415644455E1	7.328395367E0	3.496246401E1
2.952614697E0	2.732535601E0	4.413272858E1	9.255169868E0	4.517546515E1
2.970953864E0	-2.743245840E0	1.303122616E1	1.064171696E1	1.704653609E1
2.989280270E0	-4.699808121E0	1.237234116E0	1.241871929E1	1.333579894E1
3.007632145E0	-2.485458851E0	1.120827103E1	4.914078236E0	1.248803467E1
3.025971312E0	7.987934351E-2	2.317453384E1	2.767202377E0	2.333929752E1
3.044297666E0	1.515340447E0	2.376256180E1	3.219457865E-1	2.381300588E1
3.062649593E0	1.461798310E0	1.751346970E1	1.526923537E0	1.764057739E1
3.080988759E0	7.336476445E-2	1.112509251E1	9.589672089E-1	1.116658783E1
3.099315114E0	1.504045725E-2	5.806080818E0	4.346575439E-1	5.822347281E0
3.117667041E0	-2.875049710E-1	1.511582375E0	1.468450308E0	2.126943039E0
3.136006207E0	-6.283550262E-1	-2.643332481E0	2.520961285E0	3.706384012E0
3.154332562E0	-8.772884607E-1	-7.568098545E0	2.750882149E0	8.100191555E0
3.172684489E0	-1.082217216E0	-1.249092484E1	4.185650349E0	1.321794485E1
3.191023603E0	-1.563757539E0	-1.668332291E1	4.625113010E0	1.738304551E1
3.209350009E0	-3.241691589E0	-1.841011429E1	3.344505310E0	1.899017083E1
3.227701937E0	-5.130564213E0	-1.798049736E1	-8.584821820E-1	1.871785154E1
3.246041051E0	-4.984964848E0	-1.568104172E1	-3.856510878E0	1.690022544E1
3.264367405E0	-2.878479242E0	-1.245164680E1	-3.448581696E0	1.323713967E1
3.282719332E0	-7.732036114E-1	-9.647292137E0	-2.076643705E0	9.898511933E0
3.301058499E0	3.001481295E-1	-7.487258911E0	3.890730441E-3	7.493273653E0
3.319384853E0	8.309023380E-1	-6.404672623E0	1.964486241E0	6.750513780E0
3.337736780E0	4.796136022E-1	-6.723082066E0	2.466250658E0	7.177203771E0
3.356075947E0	-9.116541147E-1	-6.919445038E0	1.216603518E0	7.084487065E0
3.374415062E0	-1.917402983E0	-7.642303467E0	9.226105809E-1	7.932997338E0
3.392754228E0	-2.112361431E0	-9.015133858E0	1.765169144E0	9.426055983E0
3.411093395E0	-1.974058867E0	-1.088325214E1	1.338795185E0	1.114156444E1
3.429432509E0	-1.831068516E0	-1.030933762E1	-2.984660864E-2	1.047072800E1
3.447771676E0	-1.865177870E0	-6.774447441E0	-1.856675029E0	7.267686618E0
3.466110791E0	4.819758981E-2	-3.717366219E0	-2.569658041E0	4.519322633E0
3.484437145E0	1.543417573E0	6.970682144E-1	1.096147060E0	2.017320073E0
3.502789072E0	3.991686106E0	1.564477730E1	5.190546513E0	1.695978737E1
3.521128239E0	5.782163620E0	4.179888916E1	9.403068542E0	4.323191239E1
3.539454593E0	-1.667751551E0	1.843541336E1	9.135432243E0	2.064223785E1
3.557806520E0	-6.608698368E0	3.402533531E0	8.793361664E0	1.151413644E1
3.576145634E0	-7.828661919E0	1.013992214E1	5.436221600E0	1.391612280E1
3.594472041E0	-5.043810844E0	2.791167450E1	2.848004341E0	2.850636297E1
3.612823968E0	-1.012399554E0	2.344327927E1	2.955814362E0	2.365056308E1
3.631163082E0	2.257963181E0	1.201641083E1	3.715941668E0	1.277891816E1
3.649489437E0	4.461686134E0	1.235843182E1	1.654443622E0	1.324290995E1
3.667841364E0	3.719914913E0	1.140869045E1	-2.431562662E0	1.224371193E1
3.686180530E0	-2.102475315E-1	6.901445389E0	-9.143575430E-1	6.964926575E0
3.704506884E0	-1.706236482E0	1.376210213E0	9.455533028E-1	2.387314083E0
3.722858812E0	-2.095351219E0	-3.853178024E0	2.291417599E0	4.948542435E0
3.741197926E0	-2.031796932E0	-8.586204529E0	3.810271740E0	9.610893700E0
3.759524332E0	-1.417434096E0	-1.301393223E1	5.028953075E0	1.402362009E1
3.777876207E0	-1.816506028E0	-1.652716827E1	3.791057587E0	1.705341910E1
3.796215374E0	-3.657617092E0	-1.777249146E1	4.435178638E-2	1.814501536E1
3.814541728E0	-5.421752930E0	-1.664253807E1	-4.527943611E0	1.807959490E1
3.832893655E0	-4.526360512E0	-1.414669991E1	-4.205663204E0	1.543711957E1
3.851232822E0	-1.908168793E0	-1.222473812E1	-1.889318347E0	1.251618369E1
3.869559176E0	-2.105610371E-1	-1.001898003E1	6.993309855E-1	1.004556422E1
3.887911103E0	9.389795065E-1	-7.781314850E0	2.269820690E0	8.159817968E0
3.906250218E0	1.027689219E0	-5.975482941E0	1.261451602E0	6.193044619E0
3.924576572E0	1.136694551E-1	-5.501444817E0	-1.379132271E0	5.672814261E0
3.942928499E0	-8.609452248E-1	-6.221284866E0	-1.032918572E0	6.364945628E0
3.961267666E0	-1.470615625E0	-7.857322693E0	4.880724549E-1	8.008648134E0
3.979594020E0	-2.429082394E0	-9.677941322E0	2.411731005E0	1.026544865E1
3.997945947E0	-2.639332056E0	-1.089771557E1	2.717440128E0	1.153736361E1
4.016285062E0	-1.614096642E0	-9.643760681E0	-3.617913425E-1	9.784596109E0
4.034611416E0	-4.293780029E-1	-6.495559692E0	-2.230181694E0	6.881160627E0
4.052963343E0	4.549192786E-1	-1.651374817E0	1.194665432E-1	1.717050550E0
4.071302509E0	3.265057564E0	6.038964272E0	3.183962822E0	7.567516741E0
4.089628864E0	5.823143482E0	2.276571655E1	4.542681694E0	2.393371695E1
4.107980791E0	-1.246304750E0	2.834933090E1	1.110332203E1	3.047165237E1
4.126319905E0	-7.219766617E0	1.629696655E1	1.244771767E1	2.174078710E1
4.144646259E0	-9.252130508E0	1.313486385E1	4.443831444E0	1.666955924E1
4.162998187E0	-6.374103069E0	2.020180130E1	9.781581163E-1	2.120610193E1
4.181337353E0	5.316596031E-1	2.132061005E1	-2.250247598E-1	2.132842495E1
4.199663707E0	5.249989510E0	1.476063347E1	3.374304295E0	1.602574865E1
4.218015634E0	6.236768246E0	1.234836769E1	2.677200794E0	1.409066595E1
4.236354749E0	3.614026070E0	1.107748795E1	1.383979201E0	1.173402412E1
4.254681103E0	-2.201473415E-1	7.312596321E0	8.679244518E-1	7.367212679E0
4.273033030E0	-1.948830128E0	1.864215851E0	-1.006225824E0	2.878494401E0
4.291372197E0	-2.734714031E0	-3.423530102E0	-1.860468239E-1	4.385639362E0
4.309698551E0	-1.724721789E0	-8.900797844E0	1.079279900E0	9.130373082E0
4.328050478E0	-5.850249529E-2	-1.308709431E1	2.482419252E0	1.332058052E1
4.346389593E0	3.399634361E-1	-1.612187576E1	3.180672407E0	1.643615315E1
4.364715947E0	-1.231234908E0	-1.739074707E1	2.166934013E0	1.756842697E1
4.383067874E0	-3.458093882E0	-1.588383102E1	-2.020561218E0	1.638100024E1
4.401406989E0	-3.611824989E0	-1.362423706E1	-3.117037296E0	1.443540913E1
4.419733395E0	-2.872324467E0	-1.156685352E1	-1.401815057E0	1.200030973E1
4.438085270E0	-2.201488495E0	-1.026739311E1	1.124505699E-1	1.050135982E1
4.456424437E0	-4.263357818E-1	-8.583456993E0	1.237099290E0	8.682621194E0
4.474750791E0	1.242730498E0	-6.073237419E0	1.556500435E0	6.391501032E0
4.493102718E0	2.118075371E0	-4.751473904E0	3.920089453E-2	5.202334499E0
4.511441832E0	1.708365679E0	-5.987225533E0	-1.152887821E0	6.332024415E0
4.529768187E0	-2.160191536E-3	-8.152240753E0	-1.385599017E0	8.269154648E0
4.548120114E0	-1.778802156E0	-1.088387394E1	-5.559253693E-1	1.104227794E1
4.566459228E0	-4.587672710E0	-1.171817112E1	1.489448547E0	1.267204531E1
4.584785582E0	-5.285469532E0	-1.078822803E1	4.957078695E-1	1.202363417E1
4.603137509E0	-3.564098120E0	-6.349849701E0	-2.352986813E0	7.652446248E0
4.621476676E0	-6.518992186E-1	-1.846313477E-1	-2.822199345E0	2.902390475E0
4.639803030E0	2.610848427E0	1.207832432E1	2.987935305E0	1.271338685E1
4.658154957E0	7.334016323E0	3.675681305E1	5.611607552E0	3.789909287E1
4.676494072E0	2.684657574E0	2.214856339E1	3.064733982E0	2.252018740E1
4.694820426E0	-1.031760335E0	9.736769676E0	6.761223316E0	1.189888036E1
4.713172353E0	-4.565242290E0	1.308778477E1	9.326203346E0	1.670657404E1
4.731511468E0	-4.214005470E0	2.335260010E1	9.800030708E0	2.567376823E1
4.749837822E0	-2.343766451E0	2.213372040E1	4.439822197E0	2.269596530E1
4.768189749E0	4.443916678E-1	1.466427040E1	3.754246473E0	1.514373392E1
4.786528916E0	2.273100376E0	1.318628883E1	2.406713009E0	1.359549433E1
4.804855270E0	2.950351238E0	1.125854301E1	3.098798394E-1	1.164282563E1
4.823207145E0	1.602022767E0	6.212809563E0	1.576384187E0	6.606849984E0
4.841546312E0	-7.722499967E-1	1.063766479E0	1.127058506E0	1.731539793E0
4.859872666E0	-1.981374979E0	-3.740430832E0	1.246160865E0	4.412435441E0
4.878224593E0	-1.680239558E0	-8.806543350E0	1.169244409E0	9.041324197E0
4.896563707E0	-1.210534215E0	-1.298851681E1	8.080644608E-1	1.306980987E1
4.914890062E0	-1.627510548E0	-1.623597717E1	1.277602673E0	1.636728487E1
4.933241989E0	-2.287761927E0	-1.754972458E1	5.593193769E-1	1.770704734E1
4.951581103E0	-1.514421225E0	-1.688032722E1	-1.311786890E0	1.699881477E1
4.969907457E0	1.552978158E-1	-1.444770432E1	-2.633406639E0	1.468656215E1
4.988259384E0	6.754767299E-1	-1.169218063E1	-1.594010353E0	1.181965422E1
5.006598499E0	3.255645037E-1	-9.835158348E0	-9.413985014E-1	9.885472326E0
5.024924905E0	-1.304287016E-1	-8.156240463E0	4.194265604E-2	8.157391086E0
5.043276780E0	-1.632750034E-1	-6.632675171E0	1.519160628E0	6.806385800E0
5.061615947E0	-2.558895946E-2	-5.463031769E0	3.807635903E-1	5.476344749E0
5.079955062E0	-5.748064518E-1	-6.189237595E0	-5.629574656E-1	6.241312808E0
5.098294176E0	-7.737343311E-1	-8.037202835E0	-5.092660189E-1	8.090404570E0
5.116633343E0	-7.348414660E-1	-1.025870800E1	3.846274018E-1	1.029218247E1
5.134959697E0	-1.152392864E0	-1.220136642E1	3.395594954E-1	1.226036919E1
5.153311624E0	-1.735644817E0	-1.318559265E1	3.413472176E-1	1.330371506E1
5.171650739E0	-2.587081194E0	-1.059251213E1	2.138245106E-2	1.090388736E1
5.189977093E0	-3.055274010E0	-4.863390923E0	-5.873003006E0	8.214586712E0
5.208329020E0	-1.528363824E0	3.425717354E0	-4.129985809E0	5.579266811E0
5.226668134E0	5.591561794E0	2.471117210E1	5.461473942E0	2.591785654E1
5.244994489E0	1.063481903E1	3.015493011E1	5.382805824E0	3.242520292E1
5.263346416E0	1.507058024E0	3.483611107E0	3.797088146E0	5.368859155E0
5.281685530E0	-5.764749527E0	-3.183751583E0	9.446998596E0	1.151583231E1
5.300011937E0	-7.809132576E0	1.313971519E1	1.310870361E1	2.013635462E1
5.318363812E0	-3.241892099E0	2.548936081E1	8.078680992E0	2.693478170E1
5.336702978E0	-1.024892330E0	1.740956497E1	3.329040527E0	1.775460131E1
5.355029332E0	-4.831364155E-1	1.441162968E1	1.670628071E0	1.451618024E1
5.373381259E0	-9.888958335E-1	1.568558884E1	4.591703415E-1	1.572343631E1
5.391720374E0	-1.615489841E0	1.406683636E1	3.610982895E0	1.461249089E1
5.410046728E0	-1.295996606E-1	1.086018753E1	5.427011490E0	1.214137237E1
5.428398655E0	2.544130325E0	6.623775482E0	4.885210037E0	8.614654831E0
5.446737770E0	4.241252422E0	2.405199051E0	-7.408764362E-1	4.931744365E0
5.465064124E0	2.318324566E0	2.937955856E-1	-2.789376259E0	3.638896062E0
5.483416051E0	-3.073914051E-1	-2.694757462E0	-1.562803984E0	3.130265731E0
5.501755166E0	-1.088451385E0	-6.888687134E0	1.121037900E-1	6.975048681E0
5.520081520E0	-1.166386247E0	-1.085976124E1	1.899991274E0	1.108624544E1
5.538433447E0	-1.748038530E0	-1.414095497E1	3.064415693E0	1.457439157E1
5.556772562E0	-2.834267139E0	-1.657018661E1	1.892618418E0	1.691703754E1
5.575098968E0	-3.731602430E0	-1.616548729E1	-1.580551863E0	1.666571271E1
5.593450843E0	-2.531104565E0	-1.379695702E1	-3.194574356E0	1.438637614E1
5.611790009E0	-1.482860923E0	-1.162250423E1	-2.690709114E0	1.202170523E1
5.630116364E0	-1.582312822E0	-1.015121174E1	-1.463968396E0	1.037757279E1
5.648468239E0	-1.171113491E0	-8.633816719E0	3.868225813E-1	8.721463734E0
5.666807405E0	1.799815893E-2	-6.978128433E0	1.290859461E0	7.096542715E0
5.685133759E0	1.377626896E0	-5.565878868E0	-2.268024683E-1	5.738318813E0
5.703485687E0	1.584207058E0	-6.242645264E0	-5.118150711E-1	6.460827080E0
5.721824801E0	7.512083054E-1	-7.956184864E0	6.187382340E-1	8.015486792E0
5.740151155E0	-9.571639299E-1	-1.047254658E1	1.868174314E0	1.068084593E1
5.758503082E0	-3.706043482E0	-1.181141281E1	2.107851028E0	1.255735907E1
5.776842197E0	-5.153785229E0	-1.024958134E1	1.605595112E0	1.158418557E1
5.795168551E0	-3.322960377E0	-6.071206093E0	-1.929794550E0	7.185103763E0
5.813520478E0	-1.074548960E-1	1.656532288E-3	-2.538206100E0	2.540480173E0
5.831859645E0	8.290469646E-1	1.275014973E1	3.063496828E0	1.313920278E1
5.850185999E0	4.069795609E0	3.092581940E1	6.471567154E0	3.185672179E1
5.868537874E0	-2.790794373E0	1.700388145E1	8.217714310E0	1.909060885E1
5.886877041E0	-6.008497238E0	7.634474754E0	9.344145775E0	1.347962552E1
5.905203395E0	-1.928042412E0	1.550473499E1	7.319583416E0	1.725370847E1
5.923555322E0	4.715380967E-1	2.157429504E1	6.127579689E0	2.243256088E1
5.941894437E0	2.241135597E0	1.914247513E1	1.596065640E0	1.933919513E1
5.960220791E0	3.585510969E0	1.455258083E1	4.151028395E-1	1.499352554E1
5.978572718E0	2.197064877E0	1.473271656E1	1.356632233E0	1.495728860E1
5.996911832E0	5.102675557E-1	1.250251579E1	1.599642396E0	1.261475842E1
6.015238239E0	3.502089903E-2	7.769152641E0	2.114364624E0	8.051800854E0
6.033590114E0	5.267029256E-2	2.728657722E0	1.763485312E0	3.249342637E0
6.051929280E0	8.738894761E-2	-1.704444885E0	1.489265442E0	2.265100605E0
6.070255634E0	1.733956933E-1	-5.897698879E0	1.108888984E0	6.003545029E0
6.088607562E0	2.841132283E-1	-1.002549458E1	1.501864433E0	1.014134402E1
6.106946676E0	-1.952576339E-1	-1.415201950E1	1.733670115E0	1.425915122E1
6.125273030E0	-1.909569979E0	-1.666497421E1	1.933359861E0	1.688507339E1
6.143624957E0	-4.321149349E0	-1.678011513E1	4.933212996E-1	1.733458858E1
6.161964072E0	-5.100571632E0	-1.576659966E1	-2.900134563E0	1.682296871E1
6.180290478E0	-3.353712320E0	-1.383094025E1	-3.657142162E0	1.469411390E1
6.198642353E0	-1.000356078E0	-1.103634262E1	-3.374905825E0	1.158410808E1
6.216981520E0	5.830789208E-1	-8.696928024E0	-2.394650698E0	9.039407616E0
6.235307874E0	1.614734650E0	-6.900382996E0	-1.644749165E0	7.275153145E0
6.253659801E0	2.182065487E0	-6.154682159E0	5.126742125E-1	6.550141763E0
6.271998916E0	1.774211407E0	-6.777503967E0	2.355332613E0	7.391209499E0
6.290325270E0	3.756632507E-1	-7.354552269E0	1.496198416E0	7.514597238E0
6.308677197E0	-1.146870852E0	-8.567294121E0	1.584180355E0	8.787688473E0
6.327016364E0	-2.570608139E0	-9.925738335E0	1.815574884E0	1.041271434E1
6.345342718E0	-4.018409252E0	-9.807902336E0	5.783225298E-1	1.061494315E1
6.363694645E0	-4.369518757E0	-7.354794502E0	-1.247052789E0	8.645278306E0
6.382033759E0	-1.052063107E0	-3.364075661E0	-3.123476982E0	4.709559458E0
6.400360114E0	3.099119663E0	1.165109634E0	-1.062353849E-1	3.312598543E0
6.418712041E0	4.521644115E0	1.441241169E1	4.635280609E0	1.580027539E1
6.437051207E0	4.661231041E0	2.634585190E1	3.287364483E0	2.695621918E1
6.455377562E0	-3.091148853E0	1.263081646E1	5.298162460E0	1.404148322E1
6.473729489E0	-7.999013662E-1	8.601327896E0	7.521773338E0	1.145424628E1
6.492068603E0	5.291082859E-1	1.665055084E1	1.033199692E1	1.960283039E1
6.510394957E0	-3.683428168E-1	2.334168053E1	1.013231087E1	2.544864338E1
6.528746884E0	-2.210867882E0	1.823590088E1	3.952782154E0	1.878990432E1
6.547086051E0	-2.280007362E0	1.321708584E1	8.860123158E-2	1.341259266E1
6.565412405E0	-1.810180664E0	1.236641693E1	2.856743813E0	1.282053068E1
6.583764332E0	-1.981291175E-1	1.237704182E1	-2.115467191E-1	1.238043502E1
6.602103447E0	1.558013320E0	9.826919556E0	1.216223836E-1	9.950404286E0
6.620429801E0	2.461409807E0	4.731361389E0	1.617053866E0	5.573076533E0
6.638781728E0	8.509715796E-1	3.298683167E-1	1.475972176E0	1.735355756E0
6.657120895E0	-3.052480519E-1	-3.769849777E0	2.208346844E0	4.379696279E0
6.675447249E0	-5.763955116E-1	-8.111507416E0	2.255690336E0	8.439011982E0
6.693799176E0	-5.851815343E-1	-1.158234024E1	9.642459154E-1	1.163713079E1
6.712138291E0	-1.196832776E0	-1.439588928E1	-3.593408465E-1	1.445002293E1
6.730464697E0	-2.349139214E0	-1.605718994E1	-7.399942279E-1	1.624498062E1
6.748816624E0	-3.804538965E0	-1.620888519E1	-1.489158392E0	1.671586279E1
6.767155739E0	-3.753203630E0	-1.448908043E1	-1.957782745E0	1.509479720E1
6.785482093E0	-1.396340370E0	-1.235371971E1	-2.135412931E0	1.261444194E1
6.803834020E0	4.398941994E-1	-1.050265121E1	-1.401531696E0	1.060488003E1
6.822173187E0	7.741839886E-1	-8.488059044E0	-8.360598087E-1	8.564198923E0
6.840499541E0	3.819875121E-1	-6.783850670E0	-2.068187296E-1	6.797743623E0
6.858851468E0	-2.097657323E-1	-6.233415604E0	3.096640110E-3	6.236944872E0
6.877190634E0	-3.656988144E-1	-6.717304230E0	-3.928570151E-1	6.738712664E0
6.895516989E0	-3.585939407E-1	-8.173823357E0	6.428515315E-1	8.206901728E0
6.913868916E0	-6.318041682E-1	-1.015300846E1	1.812838078E0	1.033291533E1
6.932208030E0	-1.101667762E0	-1.101861572E1	2.358233452E0	1.132187393E1
6.950534437E0	-1.555234551E0	-9.154619217E0	5.441591740E-1	9.301715795E0
6.968886364E0	-1.641342759E0	-5.140661240E0	-2.834248781E0	6.095356445E0
6.987225478E0	-1.707544923E0	7.758951187E-1	-3.289265156E0	3.786421551E0
7.005551832E0	4.220936298E-1	1.037280464E1	3.408495188E0	1.092662247E1
7.023903759E0	6.117753983E0	2.506076622E1	3.586332321E0	2.604478253E1
7.042242926E0	2.458432198E0	1.781138611E1	4.878291130E0	1.863027344E1
7.060569280E0	-4.746018410E0	6.268579483E0	7.911585331E0	1.115405585E1
7.078921207E0	-5.267435074E0	1.148863411E1	5.351200104E0	1.372479248E1
7.097260374E0	-1.805306673E0	1.712928009E1	5.471903801E0	1.807244034E1
7.115586728E0	3.044374883E-1	1.807424545E1	2.755514860E0	1.828561984E1
7.133938655E0	6.471084356E-1	1.723454666E1	1.056652665E0	1.727902957E1
7.152277822E0	1.171898603E0	1.444749069E1	3.374926567E0	1.488265645E1
7.170604176E0	7.293916941E-1	1.249918556E1	4.746990681E0	1.339012967E1
7.188956103E0	-6.001895666E-2	1.026840878E1	5.517587185E0	1.165708323E1
7.207295270E0	-5.015439987E-1	7.087056160E0	3.268391132E0	7.820504587E0
7.225621624E0	-4.898712337E-1	3.135459900E0	-3.048103750E-1	3.188101625E0
7.243973551E0	-3.330810070E-1	-4.005193710E-1	-1.235218883E0	1.340568690E0
7.262312718E0	-2.737421393E-1	-4.086580753E0	-2.862469852E-1	4.105729454E0
7.280639072E0	-4.207905233E-1	-8.399464607E0	7.297089100E-1	8.441596143E0
7.298990999E0	-7.677062750E-1	-1.224043179E1	1.079484463E0	1.231189790E1
7.317330166E0	-1.456501842E0	-1.505586147E1	7.258774042E-1	1.514355508E1
7.335656520E0	-2.856334209E0	-1.583947754E1	-2.771605849E-1	1.609734487E1
7.354008447E0	-3.667653561E0	-1.447315693E1	-2.420887947E0	1.512562900E1
7.372347614E0	-1.814534545E0	-1.259281540E1	-3.785979748E0	1.327422984E1
7.390673968E0	6.864115596E-1	-1.043782425E1	-3.406749249E0	1.100114886E1
7.409025895E0	1.683373332E0	-8.478116989E0	-2.801260710E0	9.086213459E0
7.427365062E0	1.668269396E0	-7.317945957E0	-1.586920500E0	7.671621242E0
7.445691416E0	1.298533440E0	-7.421468735E0	1.214736462E0	7.631511773E0
7.464043343E0	4.266426563E-1	-7.944036484E0	1.562598705E0	8.107493714E0
7.482382509E0	-3.069918454E-1	-8.908340454E0	1.002256751E0	8.969798896E0
7.500708864E0	-1.807258248E0	-9.997143745E0	1.957457304E0	1.034604777E1
7.519060791E0	-3.756327868E0	-1.094637108E1	2.658009052E0	1.187426002E1
7.537399957E0	-4.334382057E0	-1.039278316E1	1.446928501E0	1.135299132E1
7.555726312E0	-3.400702715E0	-9.187323570E0	-8.944715261E-1	9.837264490E0
7.574078239E0	-7.746028304E-1	-4.219390869E0	-3.650763035E0	5.633057748E0
7.592417405E0	7.804132700E-1	2.823111534E0	-2.612366199E0	3.924724292E0
7.610743759E0	2.445128202E0	2.184943390E1	4.761863232E0	2.249559413E1
7.629095687E0	5.159580231E0	3.209033203E1	5.300827503E0	3.293189108E1
7.647434853E0	-1.966312885E0	6.054152489E0	6.365242004E0	9.001969479E0
7.665761207E0	-2.911819458E0	2.215623856E0	7.074528217E0	7.964711616E0
7.684113134E0	-2.825140953E0	1.437162971E1	5.791992188E0	1.575031224E1
7.702452301E0	-1.908388138E0	2.278128052E1	2.986953974E0	2.305538075E1
7.720778655E0	7.259105444E-1	1.698838806E1	2.726675987E0	1.722112183E1
7.739130582E0	2.027668715E0	1.440350628E1	1.950611234E0	1.467573909E1
7.757469749E0	1.142148733E0	1.591606712E1	1.374444008E0	1.601607919E1
7.775796103E0	-6.663185358E-1	1.421634960E1	3.410004616E0	1.463477734E1
7.794148030E0	-1.641787529E0	9.776262283E0	3.368075371E0	1.046970402E1
7.812487197E0	-7.013692856E-1	4.859035492E0	1.070983648E0	5.024853307E0
7.830813551E0	7.583981156E-1	1.070366859E0	-5.275382400E-1	1.413912837E0
7.849165478E0	1.451604366E0	-2.604098320E0	-3.959656954E-1	3.007535890E0
7.867504645E0	1.183336258E0	-6.760557175E0	1.581671238E-1	6.865160949E0
7.885831051E0	5.056064129E-1	-1.112787056E1	4.690855742E-2	1.113944978E1
7.904182978E0	-1.162055254E0	-1.421960163E1	1.718797684E-1	1.426804071E1
7.922522093E0	-3.885678053E0	-1.582060909E1	5.312331319E-1	1.629945934E1
7.940848499E0	-6.093805313E0	-1.623583412E1	-1.738724947E0	1.742871014E1
7.959200426E0	-4.486863136E0	-1.481626415E1	-3.376655102E0	1.584472858E1
7.977539541E0	-1.613079906E0	-1.243391037E1	-2.508266687E0	1.278653806E1
7.995865947E0	3.658398390E-1	-1.056466866E1	-8.274838924E-1	1.060333873E1
8.014217874E0	2.099322081E0	-8.576046944E0	1.319300532E0	8.927277764E0
8.032557041E0	2.623122215E0	-6.525868416E0	5.637698770E-1	7.055888690E0
8.050883395E0	1.364964485E0	-5.156942368E0	-2.977816820E0	6.109384228E0
8.069235322E0	-2.643446624E-1	-5.946787357E0	-2.636418581E0	6.510365651E0
8.087574489E0	-1.022246122E0	-7.893761158E0	-1.019607782E0	8.024715097E0
8.105900843E0	-1.446398735E0	-1.044083214E1	1.645592451E-1	1.054182739E1
8.124252770E0	-2.179871559E0	-1.257128906E1	1.281867981E0	1.282311718E1
8.142591937E0	-2.282402992E0	-1.326168156E1	8.166968822E-1	1.348141517E1
8.160918291E0	-2.076719046E0	-1.039471626E1	-4.895246029E-1	1.061143357E1
8.179270218E0	-1.963754177E0	-5.586845875E0	-2.053261042E0	6.267779368E0
8.197609384E0	-1.196678877E0	1.182499886E0	-5.618094444E0	5.864582807E0
8.215935739E0	1.192976594E0	1.634437752E1	9.211828709E-1	1.641372741E1
8.234287666E0	6.707477570E0	3.314746094E1	2.864114761E0	3.394035320E1
8.252626832E0	1.034272790E0	1.070328522E1	4.843951225E0	1.179380762E1
8.270953187E0	-4.431644440E0	-2.347403526E0	7.422027588E0	8.957470026E0
8.289305114E0	-3.509361744E0	8.186948776E0	1.056334877E1	1.381760064E1
8.307644280E0	4.902100563E-2	2.284960175E1	1.017232323E1	2.501165454E1
8.325970634E0	2.034304380E0	1.882984924E1	7.302958488E0	2.029864083E1
8.344322562E0	-2.728319168E-2	1.500300503E1	5.159565926E0	1.586543491E1
8.362661728E0	-1.288620710E0	1.687792206E1	-1.617491126E0	1.700414873E1
8.381000895E0	-1.136763334E0	1.626083374E1	-7.824766636E-2	1.630070758E1
8.399340062E0	-8.566324711E-1	1.312349510E1	3.040903091E0	1.349840859E1
8.417679176E0	-4.040571451E-1	1.077808094E1	5.003190517E0	1.188958394E1
8.436005582E0	1.141793489E0	7.160621643E0	2.196765423E0	7.576540966E0
8.454357509E0	3.191419363E0	2.616374969E0	-1.073547006E-1	4.128207912E0
8.472696624E0	2.528606653E0	-6.052665710E-1	-5.944249034E-1	2.667122081E0
8.491023030E0	4.341672361E-1	-4.351591587E0	-3.815227747E-1	4.389807531E0
8.509374957E0	-9.505913854E-1	-9.104729652E0	8.738934994E-3	9.154223200E0
8.527714072E0	-2.344020128E0	-1.352239799E1	6.788232923E-1	1.374083254E1
8.546040478E0	-4.867369652E0	-1.690280914E1	1.637699962E0	1.766573818E1
8.564392405E0	-7.843218803E0	-1.824113464E1	4.332165718E-1	1.986058284E1
8.582731572E0	-5.929467201E0	-1.662079239E1	-3.860160351E0	1.806405710E1
8.601057926E0	-1.852460861E0	-1.352859879E1	-3.954275846E0	1.421586768E1
8.619409853E0	6.084844470E-1	-1.129343796E1	-2.062770367E0	1.149639143E1
8.637749020E0	2.539589405E0	-8.956748009E0	-8.730369210E-1	9.350670709E0
8.656075374E0	3.237159014E0	-6.524064064E0	9.113188386E-1	7.339830544E0
8.674427301E0	1.291638136E0	-5.097695827E0	2.608911991E-1	5.265253654E0
8.692766468E0	-1.191746831E0	-5.021631718E0	-2.014198542E0	5.540220337E0
8.711092822E0	-2.224797249E0	-6.154443741E0	-1.824142456E0	6.793702691E0
8.729444749E0	-1.984955311E0	-8.214854240E0	-1.280541182E0	8.547728558E0
8.747783916E0	-1.120056391E0	-1.081126213E1	-8.484426737E-1	1.090219107E1
8.766110270E0	-2.093653083E-1	-1.258243561E1	1.674633026E-1	1.258529156E1
8.784462197E0	-5.890522599E-1	-1.254623222E1	9.612617493E-1	1.259678331E1
8.802801364E0	-2.028149605E0	-8.547267914E0	2.281475067E-1	8.787561146E0
8.821127718E0	-9.711910486E-1	-3.730864525E0	-1.842845917E0	4.273013366E0
8.839479645E0	6.807289124E-1	1.838893890E0	-2.380011797E0	3.083728060E0
8.857818812E0	2.488228798E0	1.718981552E1	4.262209415E0	1.788427995E1
8.876145218E0	6.412747860E0	3.456021118E1	4.994819641E0	3.550323584E1
8.894497145E0	-2.175163627E-1	8.804313660E0	9.150045395E0	1.269986548E1
8.912836259E0	-6.574913025E0	-1.845726490E0	6.577563286E0	9.481588809E0
8.931162666E0	-5.698191166E0	9.032900810E0	2.917496681E0	1.107133535E1
8.949514593E0	-7.785085440E-1	2.336709595E1	2.645244122E0	2.352922789E1
8.967853707E0	3.164431572E0	2.277447510E1	5.798888206E0	2.371323360E1
8.986180114E0	3.092000484E0	1.708986855E1	5.405103207E0	1.818898608E1
9.004532041E0	4.948222935E-1	1.676266861E1	4.701313019E0	1.741649368E1
9.022871207E0	-1.730535865E0	1.602151299E1	2.901901245E0	1.637390190E1
9.041197562E0	-2.171264172E0	1.266877460E1	-5.593044162E-1	1.286565426E1
9.059549489E0	1.298207045E-2	8.562450409E0	5.287061334E-1	8.578767727E0
9.077888655E0	2.246266603E0	4.155743599E0	1.152490854E0	4.862525443E0
9.096215009E0	2.159630299E0	4.209880829E-1	9.302764535E-1	2.388859199E0
9.114566937E0	3.530594409E-1	-2.940330982E0	8.564416170E-1	3.082805459E0
9.132906103E0	-7.382767200E-1	-7.121451378E0	1.334053993E0	7.282844382E0
9.151232509E0	-1.408484936E0	-1.215619659E1	1.105755448E0	1.228737729E1
9.169584437E0	-3.354638577E0	-1.588461113E1	1.103201985E0	1.627241609E1
9.187923551E0	-6.616482258E0	-1.816346741E1	8.224712610E-1	1.934853598E1
9.206249957E0	-6.746614456E0	-1.766256714E1	-2.494771004E0	1.907110293E1
9.224601884E0	-3.218307972E0	-1.524073887E1	-4.524787426E0	1.622070679E1
9.242941051E0	-3.698756695E-1	-1.288717270E1	-3.675507069E0	1.340616949E1
9.261267405E0	1.040898681E0	-1.001844120E1	-1.279576898E0	1.015332217E1
9.279619332E0	1.276675463E0	-7.157924652E0	2.403510809E-1	7.274857676E0
9.297958499E0	6.001163721E-1	-5.371002674E0	1.164472103E-1	5.405679360E0
9.316284853E0	-7.106968760E-1	-5.429316044E0	-8.896551728E-1	5.547436262E0
9.334636780E0	-1.069813848E0	-6.634266376E0	-8.620492220E-1	6.775036596E0
9.352975947E0	-1.023159385E0	-7.865614414E0	-1.070023179E0	8.003730058E0
9.371302353E0	-4.802316427E-1	-9.498462677E0	-1.591362834E0	9.642813455E0
9.389654280E0	6.568250656E-1	-1.122944164E1	-1.647128820E0	1.136858884E1
9.407993447E0	1.350089550E0	-1.246302223E1	-1.792657614E0	1.266346265E1
9.426332562E0	6.876788139E-1	-1.114278030E1	-7.772785425E-1	1.119100608E1
9.444671728E0	-1.262492537E0	-8.406587601E0	3.426113129E-1	8.507760281E0
9.463010895E0	-4.760614395E0	-4.962423325E0	2.069224358E0	7.181280117E0
9.481337249E0	-6.276121616E0	1.960471153E0	1.448068976E0	6.732759720E0
9.499689176E0	-3.429940224E0	1.347968674E1	2.145007133E0	1.407364559E1
9.518028343E0	3.008538246E0	3.118547440E1	1.223376632E0	3.135413475E1
9.536354749E0	1.886103630E0	2.130625534E1	2.141024828E0	2.149646229E1
9.554706676E0	-9.317237139E-1	7.951514244E0	1.890717983E0	8.226147479E0
9.573045843E0	-2.017890453E0	1.117795849E1	3.061066628E0	1.176387550E1
9.591372197E0	-4.636103630E0	2.097878265E1	6.745366096E0	2.251894186E1
9.609724124E0	-5.450809002E-1	1.817549133E1	8.332683563E0	2.000198025E1
9.628063291E0	1.843382120E0	1.627666092E1	9.846122742E0	1.911213963E1
9.646389697E0	1.004451275E0	1.562769699E1	6.503326893E0	1.695662396E1
9.664741624E0	-8.398258686E-1	1.409549332E1	-1.991630077E0	1.426025349E1
9.683080791E0	-1.734763145E0	1.151547527E1	-2.703032970E0	1.195499733E1
9.701407145E0	-1.775097728E0	8.345069885E0	-7.743824720E-1	8.566844900E0
9.719759072E0	-6.459206343E-1	4.721082687E0	6.825717092E-1	4.813703288E0
9.738098239E0	1.294861436E-1	8.080797195E-1	1.638347149E0	1.831376770E0
9.756424593E0	-3.152691722E-1	-3.307640553E0	2.444367647E0	4.124901680E0
9.774776572E0	-4.773746133E-1	-7.388207436E0	2.218127728E0	7.728750627E0
9.793115687E0	1.257721484E-1	-1.145940113E1	1.871720433E0	1.161193482E1
9.811442093E0	3.356283903E-2	-1.544597149E1	1.577305198E0	1.552633419E1
9.829794020E0	-2.020231247E0	-1.745089912E1	1.115872860E0	1.760285167E1
9.848133187E0	-5.114192009E0	-1.692720413E1	-1.481868386E0	1.774489035E1
9.866459541E0	-4.679359913E0	-1.460371685E1	-4.713754654E0	1.604320535E1
9.884811520E0	-2.078331947E0	-1.189152622E1	-3.968873501E0	1.270747089E1
9.903150634E0	-5.063896179E-1	-1.022800064E1	-2.412179947E0	1.052079083E1
9.921477041E0	6.280259490E-1	-8.272298813E0	-5.069774389E-1	8.311580497E0
9.939828968E0	1.765881181E0	-6.311760902E0	1.701045632E0	6.771278925E0
9.958168134E0	2.596916199E0	-5.244132042E0	3.033059835E-1	5.859768693E0
9.976494489E0	1.686114073E0	-5.765772820E0	-2.173832655E0	6.388479106E0
9.994846416E0	4.960106611E-1	-7.869767189E0	-2.026998758E0	8.141743434E0
1.001318558E1	-5.934211016E-1	-1.035505772E1	-8.036581278E-1	1.040313584E1
1.003151199E1	-1.924229741E0	-1.189885902E1	2.666341066E-1	1.205639249E1
1.004986392E1	-2.925860882E0	-1.285918617E1	4.648315907E-1	1.319603726E1
1.006820308E1	-2.631776571E0	-1.207475758E1	-2.112599611E-1	1.236004244E1
1.008652944E1	-1.804273129E0	-7.650360584E0	-1.235718012E0	7.956784375E0
1.010488136E1	-2.103870511E-1	-2.708971977E0	-2.460892677E0	3.665894796E0
1.012322053E1	-2.210949063E-1	7.015827179E0	1.324398160E0	7.143160676E0
1.014154694E1	3.892414570E0	3.526020813E1	4.842386246E0	3.580337796E1
1.015989886E1	3.164725780E0	2.715652084E1	5.002616882E0	2.779421323E1
1.017823803E1	-4.004806995E0	1.346163750E0	4.277492523E0	6.012285605E0
1.019656438E1	-2.533901930E0	3.873497963E0	2.443754911E0	5.234174579E0
1.021491631E1	-2.686810493E-1	1.675628281E1	8.009116173E0	1.857393725E1
1.023325548E1	3.295244575E-1	2.154921722E1	1.087063789E1	2.413810509E1
1.025158188E1	-9.301539660E-1	1.562009811E1	9.118607521E0	1.811081596E1
1.026993381E1	-3.023031235E0	1.497684002E1	2.973426342E0	1.556552983E1
1.028827298E1	-3.546119213E0	1.495928478E1	-7.439589500E-2	1.537402671E1
1.030659933E1	-1.315569878E0	1.361102009E1	1.841064692E-1	1.367568964E1
1.032495126E1	4.979963899E-1	1.061727715E1	1.168309689E0	1.069296600E1
1.034329043E1	1.732704759E0	6.558927536E0	-1.515650749E-2	6.783953561E0
1.036161683E1	1.831516266E0	2.370247841E0	-5.773512721E-1	3.050550959E0
1.037996876E1	1.323449731E0	-1.561314583E0	1.139005423E-1	2.049925791E0
1.039830793E1	9.817959666E-1	-5.743077755E0	1.030431628E0	5.916811199E0
1.041663428E1	7.834153771E-1	-1.018576717E1	1.816690207E0	1.037612432E1
1.043498621E1	-2.346031368E-1	-1.408084583E1	1.956412077E0	1.421804509E1
1.045332537E1	-2.236425877E0	-1.683157921E1	1.237101316E0	1.702451406E1
1.047165178E1	-4.474446774E0	-1.828184891E1	-1.138905406E0	1.885586855E1
1.049000371E1	-4.827005386E0	-1.618977356E1	-4.397556305E0	1.745701150E1
1.050834287E1	-2.765986204E0	-1.261300659E1	-3.818111420E0	1.346538487E1
1.052666923E1	-1.790597320E0	-1.091269493E1	-1.801977873E0	1.120447561E1
1.054502116E1	-9.734767675E-1	-8.806750298E0	-2.434463501E-1	8.863733635E0
1.056336032E1	7.676631212E-1	-6.965601444E0	1.487054825E0	7.163814780E0
1.058168673E1	2.087601900E0	-5.198990822E0	-8.250815272E-1	5.662892087E0
1.060003866E1	2.080279350E0	-4.657461166E0	-2.658911228E0	5.752331320E0
1.061837782E1	1.080527306E0	-6.439042091E0	-2.188226938E0	6.886010416E0
1.063670418E1	1.235342026E-1	-9.068249702E0	-1.554256082E0	9.201311066E0
1.065505610E1	-1.329923391E0	-1.173505402E1	-8.935530186E-1	1.184392781E1
1.067339527E1	-3.399352074E0	-1.256087112E1	1.667323112E-1	1.301379566E1
1.069173444E1	-2.676141024E0	-1.125002670E1	-2.371156216E-1	1.156637607E1
1.071007360E1	-1.303392172E0	-7.701124191E0	-1.712573767E0	7.996189960E0
1.072841277E1	1.010568738E-1	-1.881839275E0	-1.346487999E0	2.316152301E0
1.074673912E1	8.824099898E-1	1.138044453E1	1.943072081E0	1.157880366E1
1.076509105E1	5.145280838E0	3.523428345E1	3.748075962E-1	3.560995824E1
1.078343022E1	1.348973036E0	1.542671013E1	2.991391420E0	1.577185900E1
1.080175657E1	-1.880421638E0	-1.029974937E0	6.720427513E0	7.054146289E0
1.082010855E1	6.209785938E-1	6.576040268E0	7.228598118E0	9.791963581E0
1.083844767E1	-1.191078424E0	1.931355286E1	9.824439049E0	2.170141918E1
1.085677407E1	-4.275763512E0	1.917098808E1	9.061508179E0	2.163145553E1
1.087512600E1	-3.775128603E0	1.297523785E1	5.114484787E0	1.444874900E1
1.089346517E1	-2.569938183E0	1.425114441E1	5.368990898E0	1.544427928E1
1.091179152E1	-1.498328209E0	1.541137218E1	4.515316963E0	1.612896362E1
1.093014350E1	-9.737889171E-1	1.493741703E1	1.929718494E0	1.509299526E1
1.094848261E1	-6.196360588E-1	1.254352951E1	-5.005850792E-1	1.256879735E1
1.096680902E1	-4.401534796E-1	8.594594955E0	-2.236076593E-1	8.608762856E0
1.098516095E1	1.284606606E-1	4.497778893E0	-6.609568000E-1	4.547898526E0
1.100350011E1	1.020691276E0	3.098793030E-1	-1.145809889E-1	1.072830213E0
1.102182647E1	1.283612967E0	-4.127279282E0	5.265973210E-1	4.354239458E0
1.104017840E1	1.411567926E0	-9.084644318E0	1.268804073E0	9.280794695E0
1.105851756E1	1.194151402E0	-1.373404121E1	8.140202761E-1	1.380987019E1
1.107684397E1	-2.762136459E-1	-1.657934189E1	-8.770871162E-2	1.658187457E1
1.109519590E1	-2.711541653E0	-1.781732368E1	-1.040734649E0	1.805249595E1
1.111353506E1	-4.240648270E0	-1.661246109E1	-3.730080605E0	1.754623785E1
1.113186142E1	-2.204161167E0	-1.319427109E1	-4.487015724E0	1.410958632E1
1.115021334E1	-5.958789587E-1	-1.084726524E1	-2.902054310E0	1.124456109E1
1.116855251E1	1.779845953E-1	-9.003218651E0	-1.555592775E0	9.138352886E0
1.118687892E1	9.252982140E-1	-7.060747623E0	1.172014236E0	7.216921169E0
1.120523084E1	1.838026881E0	-5.960906029E0	1.437443495E0	6.401326995E0
1.122357001E1	2.545215368E0	-5.398478031E0	-4.389488697E-1	5.984510208E0
1.124190912E1	1.834222078E0	-6.510882378E0	-6.194423437E-1	6.792618699E0
1.126024829E1	-3.497892320E-1	-8.846418381E0	-8.248484135E-1	8.891672822E0
1.127858746E1	-4.255784988E0	-1.133960342E1	-4.191035628E-1	1.211915671E1
1.129691381E1	-5.916822433E0	-1.240793324E1	-1.409185410E0	1.381851650E1
1.131526579E1	-4.611573696E0	-1.284064770E1	-1.153459787E0	1.369230860E1
1.133360491E1	-3.698407888E0	-1.150227737E1	-3.245754242E-1	1.208660229E1
1.135193131E1	-3.412350416E0	-6.802366257E0	-9.383039474E-1	7.667902996E0
1.137028324E1	-3.739337921E-1	-6.875133514E-2	-4.370608330E0	4.387114131E0
1.138862241E1	2.637188911E0	1.328734112E1	1.012620211E0	1.358431445E1
1.140694876E1	7.589421272E0	4.105516815E1	4.423239708E0	4.198441612E1
1.142530069E1	-2.632856369E-2	1.924687004E1	1.850800991E0	1.933567076E1
1.144363985E1	-1.232358336E0	2.101449966E-1	-1.238587976E0	1.759820491E0
1.146196626E1	-2.673375607E-1	6.241885185E0	4.368883133E0	7.623630360E0
1.148031819E1	3.535755157E0	9.939559937E0	9.500804901E0	1.419724304E1
1.149865735E1	1.938301325E0	1.270362759E1	1.200698280E1	1.758712034E1
1.151698371E1	-7.674412727E-1	1.559990883E1	9.324199677E0	1.819029470E1
1.153533563E1	-4.951004982E0	1.688047218E1	3.864051342E0	1.801093235E1
1.155367480E1	-5.315311909E0	1.488305378E1	2.196733475E0	1.595567198E1
1.157200121E1	-2.881266117E0	1.184283447E1	2.797881126E0	1.250530134E1
1.159035313E1	-8.897532821E-1	1.063537693E1	2.753018141E0	1.102188787E1
1.160869230E1	-2.372081280E-1	9.819705963E0	1.201085448E0	9.895731360E0
1.162701866E1	4.333632290E-1	7.140767097E0	-5.623406768E-1	7.175972789E0
1.164537058E1	1.612464428E0	2.395243645E0	-1.111981630E0	3.094145568E0
1.166370975E1	1.977637768E0	-1.697669029E0	-4.039531946E-1	2.637481651E0
1.168203616E1	1.464146733E0	-5.784282684E0	-5.849676132E-1	5.995318085E0
1.170038808E1	1.105865002E0	-1.069886017E1	-4.876218140E-1	1.076690863E1
1.171872720E1	1.854320467E-1	-1.498936749E1	-2.029144764E-2	1.499052816E1
1.173705360E1	-1.598014355E0	-1.750607872E1	3.940113783E-1	1.758327862E1
1.175540553E1	-2.951001883E0	-1.778093529E1	1.025646925E-1	1.802444427E1
1.177374470E1	-1.990947127E0	-1.538397789E1	-2.120559692E0	1.565654558E1
1.179207105E1	-7.706380486E-1	-1.242068005E1	-3.053283691E0	1.281365354E1
1.181042303E1	-9.155243635E-1	-1.060466099E1	-2.639200211E0	1.096642135E1
1.182876214E1	-8.434169888E-1	-8.685675621E0	-2.201271534E0	8.999883865E0
1.184708855E1	5.499417335E-2	-6.204738617E0	-1.126241684E-2	6.204992547E0
1.186544048E1	1.211066127E0	-3.586210251E0	-1.145404577E-1	3.786912284E0
1.188377964E1	1.388571024E0	-4.539580345E0	-2.199447393E0	5.231967893E0
1.190210600E1	1.077376962E0	-7.392833233E0	-2.183480263E0	7.783463907E0
1.192045798E1	-3.886321187E-2	-1.061400318E1	-9.284344912E-1	1.065460297E1
1.193879709E1	-2.439707041E0	-1.268957901E1	4.914696217E-1	1.293132353E1
1.195712350E1	-3.102785587E0	-1.324608803E1	8.200848103E-1	1.362933107E1
1.197547543E1	-2.499593258E0	-1.220690346E1	4.130874872E-1	1.246704054E1
1.199381459E1	-2.105560303E0	-7.877532959E0	-4.371362925E-1	8.165782133E0
1.201214095E1	3.637831807E-1	-1.704392433E0	-1.714821458E0	2.444975338E0
1.203049293E1	2.487998009E0	8.878347397E0	-8.476030827E-1	9.259244979E0
1.204883204E1	6.877249241E0	4.097937775E1	3.441143513E0	4.169469302E1
1.206715845E1	-1.180241823E0	2.609284019E1	1.668643951E-1	2.612005214E1
1.208551037E1	-4.428380013E0	3.731737137E-1	3.007003784E0	5.365806548E0
1.210384954E1	1.125451565E0	5.308948517E0	4.925748825E0	7.329022927E0
1.212217595E1	2.225815535E0	1.770354652E1	1.078139305E1	2.084726002E1
1.214052787E1	2.206788063E-1	2.490912056E1	1.203149414E1	2.766351094E1
1.215886704E1	-9.928076267E-1	2.103760910E1	5.654450417E0	2.180686757E1
1.217719340E1	-2.182808876E0	1.774564743E1	1.010679007E0	1.790793482E1
1.219554532E1	-2.809722662E0	1.665252686E1	-1.932712555E0	1.699813431E1
1.221388449E1	-2.123666763E0	1.339766121E1	-3.546723843E0	1.402093208E1
1.223221090E1	-5.005216002E-1	8.170171738E0	-3.739649773E0	8.999289334E0
1.225056282E1	1.472132802E-1	2.244860649E0	-2.194086552E0	3.142465096E0
1.226890199E1	7.228609324E-1	-2.873894215E0	-2.979486883E-1	2.978350098E0
1.228722834E1	2.158943892E0	-8.028970718E0	3.526773453E0	9.031253540E0
1.230558032E1	2.895780563E0	-1.320481586E1	6.281428814E0	1.490667820E1
1.232391949E1	1.587806225E0	-1.648016357E1	6.398417473E0	1.774983567E1
1.234224584E1	-1.828075171E0	-1.712254524E1	3.774732590E0	1.762872714E1
1.236059777E1	-4.455684185E0	-1.733182907E1	-1.246653438E0	1.793877268E1
1.237893694E1	-4.027590752E0	-1.620290375E1	-4.762871265E0	1.736204250E1
1.239726334E1	-2.359837532E0	-1.252102566E1	-5.036843777E0	1.370090187E1
1.241561527E1	-1.008819580E0	-9.498085022E0	-4.645543098E0	1.062131850E1
1.243395444E1	4.720277786E-1	-7.165760994E0	-3.541314125E0	8.006987360E0
1.245228079E1	1.826716900E0	-5.301568985E0	-2.101317883E0	5.988243914E0
1.247063277E1	2.160203218E0	-5.037785530E0	7.081146240E-1	5.526950996E0
1.248897188E1	9.470802546E-1	-6.014592171E0	2.086516857E0	6.436290281E0
1.250731105E1	-2.662039399E-1	-7.174197197E0	2.587952614E-1	7.183797390E0
1.252565022E1	-1.380829886E-2	-8.913696289E0	-1.493842363E0	9.038016221E0
1.254398938E1	7.375104427E-1	-1.057548046E1	-3.312063456E0	1.110650588E1
1.256231579E1	1.457320452E0	-1.161785030E1	-3.939218521E0	1.235377153E1
1.258066772E1	2.005487680E0	-1.203925705E1	-2.959086895E0	1.255873745E1
1.259900688E1	1.627930403E0	-1.030403423E1	-1.173549056E0	1.049764241E1
1.261733324E1	-8.891839981E-1	-6.970716476E0	2.879044056E0	7.594105020E0
1.263568522E1	-3.596534729E0	-1.388579369E0	5.087086201E0	6.382919452E0
1.265402438E1	4.129381180E-1	7.758075714E0	2.430871725E0	8.140478734E0
1.267235074E1	4.781635761E0	3.463073730E1	3.883593798E0	3.517434161E1
1.269070267E1	-7.392840862E0	3.290037537E1	2.316048145E0	3.380019045E1
1.270904183E1	-8.909908295E0	4.671064377E0	-7.986270905E0	1.284468105E1
1.272736824E1	2.436176777E0	5.150360107E0	3.156117678E0	6.513236163E0
1.274572017E1	2.997824192E0	1.592666149E1	3.292274237E0	1.653736877E1
1.276405933E1	1.721455216E0	2.277694893E1	1.394983578E1	2.676472919E1
1.278238574E1	9.145990610E-1	1.421373940E1	1.942358780E1	2.408615042E1
1.280073767E1	-8.902094364E-1	1.464796829E1	1.025251389E1	1.790166162E1
1.281907683E1	-2.641682625E0	1.608992004E1	1.875062943E0	1.641279608E1
1.283740319E1	-3.773994684E0	1.429279327E1	-7.987389565E0	1.680254051E1
1.285575517E1	-2.007899046E0	1.221854496E1	-3.509522438E0	1.287016889E1
1.287409433E1	-6.486861110E-1	7.108430862E0	-1.690265656E0	7.335365089E0
1.289242069E1	-5.746876597E-1	2.246168137E0	-1.403344154E0	2.710149815E0
1.291077261E1	-3.692390919E-1	-1.633491516E0	3.576206565E-1	1.712461554E0
1.292911178E1	4.844009280E-1	-6.151905060E0	4.718308449E0	7.768076644E0
1.294743819E1	1.453206778E0	-1.184121990E1	6.408038139E0	1.354212877E1
1.296579011E1	6.669388413E-1	-1.563056564E1	2.842475653E0	1.590091373E1
1.298412928E1	-1.446707606E0	-1.759484482E1	-6.694743633E-1	1.766691040E1
1.300245569E1	-2.909251213E0	-1.688549042E1	-4.445492744E0	1.770158001E1
1.302080761E1	-1.860300541E0	-1.435244465E1	-5.129103661E0	1.535451366E1
1.303914678E1	-5.804795027E-2	-1.239686584E1	-4.021997929E0	1.303311627E1
1.305747313E1	1.402872443E0	-1.081401253E1	-2.890096664E0	1.128111594E1
1.307582511E1	1.809539795E0	-8.794494629E0	-6.646341681E-1	9.003294321E0
1.309416423E1	1.778743148E0	-7.009620667E0	6.671978235E-1	7.262496954E0
1.311249063E1	8.349888325E-1	-6.142615318E0	4.331535101E-1	6.214221694E0
1.313084256E1	-1.570318490E-1	-6.730906010E0	-7.791895270E-1	6.777675931E0
1.314918173E1	-8.846605420E-1	-7.948105812E0	-6.382446289E-1	8.022615938E0
1.316750813E1	-1.543974400E0	-9.602102280E0	-2.971341610E-1	9.729980156E0
1.318586006E1	-1.789415717E0	-1.094488621E1	-3.932920694E-1	1.109717177E1
1.320419923E1	-1.010110378E0	-1.164917564E1	-1.190631032E0	1.175334924E1
1.322253840E1	-4.490367770E-1	-1.200906849E1	-8.499335051E-1	1.204747886E1
1.324087756E1	-8.327234387E-1	-9.984114647E0	-6.472206116E-1	1.003966474E1
1.325921673E1	-1.908964038E0	-5.877282143E0	-1.209939957E0	6.296867775E0
1.327754308E1	-1.939642906E0	1.343783379E0	-2.971361160E0	3.794332025E0
1.329589506E1	5.952801704E-1	1.746524429E1	8.749167919E-1	1.749727396E1
1.331423423E1	4.489236832E0	3.953987503E1	3.461582661E0	3.994418004E1
1.333256058E1	-2.061198473E0	1.234140205E1	3.507311583E0	1.299461344E1
1.335091251E1	-4.349202633E0	4.893770218E-1	3.525021791E0	5.619682557E0
1.336925168E1	-2.719331264E0	9.582544327E0	6.724542618E0	1.201829404E1
1.338757808E1	-3.920595646E-1	1.652838516E1	8.994897842E0	1.882151466E1
1.340593001E1	9.252338409E-1	1.707584190E1	8.559915543E0	1.912361337E1
1.342426918E1	1.415021420E-1	1.629206276E1	8.074474335E0	1.818374185E1
1.344259558E1	-2.558484077E0	1.603408051E1	6.279050350E0	1.740873493E1
1.346094751E1	-3.302432060E0	1.604273987E1	1.749941349E0	1.647233604E1
1.347928668E1	-2.660662174E0	1.366083908E1	-7.184840441E-1	1.393606354E1
1.349761308E1	-1.027526617E0	1.083941841E1	-1.118445516E0	1.094530597E1
1.351596501E1	1.161724687E0	7.607624054E0	-1.914691806E0	7.930421975E0
1.353430418E1	2.336612463E0	3.666516304E0	-1.329991221E0	4.546644505E0
1.355263053E1	1.779277563E0	-6.104202271E-1	-1.609412432E-1	1.887946923E0
1.357098251E1	9.290556908E-1	-5.317691326E0	7.319773436E-1	5.447639521E0
1.358932168E1	4.804203212E-1	-1.033145428E1	1.351651549E0	1.043056629E1
1.360764803E1	-9.378120899E-1	-1.422644901E1	4.590300322E-1	1.426471351E1
1.362599996E1	-3.210851431E0	-1.724271774E1	-3.333976269E-1	1.754229278E1
1.364433912E1	-4.756034851E0	-1.964898682E1	-2.452389717E0	2.036459589E1
1.366266553E1	-2.933490753E0	-1.691628265E1	-3.712694168E0	1.756559378E1
1.368101746E1	-8.417868614E-1	-1.391936207E1	-1.822249770E0	1.406335094E1
1.369935662E1	-1.207520664E-1	-1.149609566E1	-3.567978144E-1	1.150226504E1
1.371768303E1	3.169572949E-1	-8.176795959E0	-6.444346905E-2	8.183190518E0
1.373603496E1	7.253502607E-1	-4.596783638E0	-2.597598553E0	5.329546984E0
1.375437412E1	4.690680802E-1	-1.673011303E0	-3.440133572E0	3.854025256E0
1.377271329E1	6.151977181E-2	-4.047433853E0	-1.752939582E0	4.411156612E0
1.379105246E1	-1.699753404E-1	-7.967198372E0	-6.305166483E-1	7.993915984E0
1.380939162E1	-6.032259464E-1	-1.130217648E1	-4.249161482E-1	1.132623628E1
1.382771798E1	-1.489891291E0	-1.249644375E1	-1.536949039E0	1.267845001E1
1.384606996E1	-1.685860515E0	-1.170055485E1	-3.422632456E0	1.230688922E1
1.386440912E1	-7.105095685E-2	-1.056149292E1	-2.938305378E0	1.096283811E1
1.388273548E1	2.003594398E0	-9.345741272E0	-5.162433386E-1	9.572031008E0
1.390108740E1	2.487879753E0	-6.969725609E0	6.299084425E-1	7.427207105E0
1.391942657E1	1.531953335E0	-1.430685043E0	-6.358276606E-1	2.190437748E0
1.393775298E1	4.285642624E0	1.589175797E1	-4.555424452E-1	1.646578947E1
1.395610490E1	6.639942169E0	3.333505249E1	3.188143492E0	3.413910976E1
1.397444407E1	-2.975032568E0	1.194315529E1	4.667371750E0	1.316336340E1
1.399277048E1	-3.966156483E0	7.544663429E0	8.142153740E0	1.178757868E1
1.401112240E1	-6.086117744E0	1.554315853E1	1.140744686E1	2.021782506E1
1.402946157E1	-5.098818302E0	2.516418076E1	1.070225716E1	2.781676202E1
1.404778798E1	2.950658202E-1	2.155130768E1	7.607922554E0	2.285664919E1
1.406613990E1	4.842876494E-1	1.627285004E1	3.964733839E0	1.675587352E1
1.408447907E1	3.172311485E-1	1.824440575E1	-1.078595996E0	1.827901381E1
1.410280548E1	9.956234694E-1	1.778770065E1	-2.618221045E-1	1.781746647E1
1.412115741E1	1.087293386E0	1.294829082E1	2.832862139E-1	1.299694938E1
1.413949657E1	7.206833363E-1	5.787390709E0	1.059707761E0	5.927584350E0
1.415782293E1	-5.897169113E-1	-7.138509750E-1	1.286253929E0	1.584865427E0
1.417617491E1	-9.992396832E-1	-5.700613976E0	7.301573753E-1	5.833404618E0
1.419451402E1	-9.170401692E-1	-1.011924458E1	-7.866084576E-2	1.016101673E1
1.421284043E1	-2.588261604E0	-1.262626457E1	-2.402420759E0	1.311080778E1
1.423119235E1	-4.995613098E0	-1.612184906E1	-4.883935452E0	1.757051487E1
1.424953152E1	-7.066477776E0	-2.014790726E1	-3.553534508E0	2.164488121E1
1.426785793E1	-4.493199348E0	-1.809269333E1	5.817754269E-1	1.865134995E1
1.428620985E1	1.431344986E0	-1.353209305E1	5.003113747E-1	1.361677650E1
1.430454902E1	3.412122726E0	-1.033945084E1	5.427941084E-1	1.090144259E1
1.432287543E1	2.348459244E0	-7.515855789E0	7.543996572E-1	7.910276095E0
1.434122735E1	4.364430308E-1	-5.059048653E0	-1.455119848E-1	5.079924165E0
1.435956652E1	-2.596060634E-1	-4.079977512E0	-3.802520275E0	5.583258211E0
1.437790569E1	-2.281871736E-1	-5.232703686E0	-4.600789070E0	6.971407126E0
1.439624485E1	-2.324694395E-2	-6.721936226E0	-1.611427426E0	6.912428328E0
1.441458402E1	-2.880753279E-1	-8.725153923E0	6.398482323E-1	8.753325319E0
1.443291037E1	-1.353356004E0	-1.054735565E1	1.300323963E0	1.071303534E1
1.445126235E1	-1.608458281E0	-1.242617130E1	-7.034540176E-1	1.254957046E1
1.446960152E1	-9.667825699E-1	-1.375725746E1	-2.516340733E0	1.401887200E1
1.448794069E1	-2.228173763E-1	-1.310548496E1	-1.584996104E0	1.320286319E1
1.450627985E1	-9.219494462E-2	-1.092486763E1	-8.522807360E-1	1.095844948E1
1.452461902E1	-5.758832097E-1	-7.300638199E0	-5.477666855E-2	7.323521016E0
1.454294537E1	-2.734293938E-1	-2.327569008E0	3.153989315E-1	2.364702435E0
1.456129730E1	1.407931328E0	9.863597870E0	1.243240595E0	1.004084064E1
1.457963647E1	3.228690863E0	4.351916885E1	6.114673615E0	4.406508522E1
1.459796287E1	-5.349864006E0	2.344635963E1	4.311266899E0	2.443235247E1
1.461631480E1	-5.869356155E0	1.989335060E0	2.208187580E-1	6.201254436E0
1.463465397E1	-7.979969978E-1	1.365027809E1	5.368893623E0	1.468985738E1
1.465298037E1	6.438482404E-1	2.375478363E1	1.307008362E1	2.712068162E1
1.467133230E1	1.715694070E-1	1.954880524E1	1.211289024E1	2.299798540E1
1.468967147E1	4.463579655E-1	1.495649910E1	5.204116821E0	1.584231462E1
1.470799787E1	1.191524506E0	1.606221008E1	1.045673847E0	1.614025270E1
1.472634980E1	2.167626619E0	1.684007645E1	-6.891632080E-2	1.697914984E1
1.474468897E1	1.928070426E0	1.341021824E1	5.659246445E-2	1.354823278E1
1.476301537E1	-1.547131389E-1	8.722260475E0	8.745065928E-1	8.767355686E0
1.478136730E1	-1.563156605E0	3.522353172E0	2.626377344E-1	3.862565083E0
1.479970647E1	-1.314089417E0	-8.852329254E-1	3.950525522E-1	1.632952800E0
1.481803282E1	-1.121453762E0	-5.409768581E0	1.145780206E0	5.642345871E0
1.483638480E1	-9.378407001E-1	-1.094306564E1	1.179790139E0	1.104636300E1
1.485472397E1	-2.150456429E0	-1.497950268E1	-2.736719251E-1	1.513554953E1
1.487305032E1	-5.087095261E0	-1.638700867E1	-1.803293467E0	1.725295507E1
1.489140225E1	-7.040359020E0	-1.742342758E1	-3.311725616E0	1.908166687E1
1.490974147E1	-5.632751465E0	-1.577078247E1	-4.589103699E0	1.736390917E1
1.492806782E1	-1.263491750E0	-1.168266487E1	-3.990274906E0	1.240980917E1
1.494641975E1	1.338135242E0	-9.872495651E0	-2.139952898E0	1.019000367E1
1.496475892E1	3.636183739E0	-8.890453339E0	-4.088929892E-1	9.614009893E0
1.498308532E1	4.466754436E0	-8.064287186E0	1.209253907E0	9.297683476E0
1.500143725E1	2.874809742E0	-7.365345955E0	1.564818501E0	8.059870286E0
1.501977642E1	-1.751599312E-1	-6.731970787E0	-2.776334286E0	7.284102123E0
1.503810282E1	-1.935689449E0	-6.546743393E0	-3.519488335E0	7.680725281E0
1.505645475E1	-1.984052658E0	-7.957883835E0	-2.588008165E0	8.600125949E0
1.507479392E1	-1.735085726E0	-1.009293175E1	-2.265439272E0	1.048856562E1
1.509312032E1	-1.477149248E0	-1.170872402E1	-1.277065992E0	1.187042904E1
1.511147225E1	-5.126767755E-1	-1.272364616E1	2.643651962E-1	1.273671457E1
1.512981142E1	5.342650414E-1	-1.248663139E1	1.376065254E0	1.257358176E1
1.514813777E1	7.024440169E-2	-9.501813889E0	5.810117722E-1	9.519820173E0
1.516648975E1	-1.023069859E0	-5.224566460E0	-1.455143452E0	5.519076833E0
1.518482892E1	-1.593048096E0	3.619691849E0	-3.343374252E0	5.178621699E0
1.520315527E1	6.106657386E-1	3.028517151E1	1.841773748E0	3.034726769E1
1.522150725E1	5.665779591E0	3.840818787E1	4.485219479E0	3.908205659E1
1.523984636E1	-1.264885426E0	6.707050323E0	6.594841957E0	9.490858740E0
1.525817277E1	-4.346713066E0	2.351607323E0	3.461624622E0	6.033806138E0
1.527652470E1	-3.862949371E0	1.509333706E1	6.119572163E0	1.673858909E1
1.529486386E1	1.367276907E0	2.081785965E1	5.757567406E0	2.164260402E1
1.531319027E1	4.109399319E0	1.957976913E1	5.936207771E0	2.086847107E1
1.533154220E1	1.959331751E0	1.753071594E1	5.108848572E0	1.836478467E1
1.534988136E1	-1.595642805E0	1.785538101E1	2.441770792E0	1.809206875E1
1.536820777E1	-3.891768932E0	1.588327789E1	1.971277475E0	1.647150014E1
1.538655970E1	-4.240337372E0	1.048225689E1	5.586175919E-1	1.132122891E1
1.540489886E1	-1.912117481E0	5.598776817E0	2.918932438E-1	5.923486877E0
1.542322527E1	4.784320593E-1	1.588571548E0	2.611109018E-1	1.679474830E0
1.544157720E1	1.272997022E0	-2.793364048E0	9.126173258E-1	3.202541882E0
1.545991636E1	1.413285732E0	-7.243305206E0	6.958496571E-1	7.412627983E0
1.547824277E1	8.865593076E-1	-1.132847881E1	-1.423651576E0	1.145195195E1
1.549659470E1	-3.966792226E-1	-1.494303226E1	-1.890402079E0	1.506735503E1
1.551493386E1	-3.327818394E0	-1.644450951E1	-2.257003546E0	1.692897909E1
1.553326027E1	-4.813937664E0	-1.647708130E1	-4.089692116E0	1.764635332E1
1.555161220E1	-2.280759811E0	-1.565619469E1	-3.844717264E0	1.628189633E1
1.556995136E1	7.929505706E-1	-1.250735092E1	-2.802612066E0	1.284201044E1
1.558827777E1	1.952183843E0	-9.885937691E0	-1.961396694E0	1.026595650E1
1.560662970E1	1.699380517E0	-7.880964279E0	-1.248293042E0	8.158169380E0
1.562496886E1	9.043173790E-1	-5.735678673E0	-4.462418556E-1	5.823652767E0
1.564329527E1	5.046189427E-1	-4.472512722E0	-1.979159117E0	4.916816158E0
1.566164720E1	8.717218041E-2	-4.979517937E0	-2.709634304E0	5.669683936E0
1.567998636E1	-8.046014309E-1	-6.475581169E0	-2.333735943E0	6.930141297E0
1.569831277E1	-1.818359375E0	-8.599095345E0	-1.752094507E0	8.962182029E0
1.571666470E1	-3.489236593E0	-1.104914665E1	-1.189278483E0	1.164786663E1
1.573500386E1	-4.786920547E0	-1.296470070E1	-6.016032696E-1	1.383329314E1
1.575333027E1	-3.446742296E0	-1.410639668E1	3.832881451E-1	1.452643691E1
1.577168220E1	-3.144807339E0	-1.389957047E1	1.900421143E0	1.437704674E1
1.579002136E1	-3.277902126E0	-9.756958961E0	1.671180248E0	1.042764278E1
1.580834777E1	-1.103433132E0	-2.803445816E0	-4.668482304E0	5.556221750E0
1.582669970E1	-8.388966322E-1	1.443729687E1	-3.955338001E0	1.499279784E1
1.584503886E1	9.047430992E0	5.098150253E1	9.748657227E0	5.268781572E1
1.586336527E1	7.663416386E0	2.441400146E1	6.664911270E0	2.644224764E1
1.588171720E1	-3.110393286E-1	1.136105537E0	4.548155785E0	4.698212670E0
1.590005636E1	-5.318312168E0	1.439845467E1	1.083710003E1	1.878942996E1
1.591838277E1	-1.692585111E0	2.496089935E1	5.429496288E0	2.560060099E1
1.593673470E1	6.533588767E-1	2.392416382E1	4.354038239E0	2.432591501E1
1.595507392E1	2.117799759E0	1.879617310E1	1.330916643E0	1.896187063E1
1.597340027E1	1.980026960E0	1.733334160E1	1.375442743E0	1.750020230E1
1.599175225E1	7.478071451E-1	1.365897179E1	5.001571655E0	1.456511053E1
1.601009142E1	4.415728524E-2	8.434323311E0	1.100978971E0	8.505992845E0
1.602841782E1	1.192194223E-2	2.848422050E0	-9.740465879E-1	3.010384870E0
1.604676975E1	-4.292853177E-2	-1.892911434E0	-7.274733782E-1	2.028342691E0
1.606510892E1	1.913124025E-1	-6.713409424E0	4.883944988E-1	6.733869297E0
1.608343532E1	4.692683220E-1	-1.214810181E1	1.989524364E-1	1.215878992E1
1.610178725E1	-3.381017447E-1	-1.674428558E1	-1.573286891E0	1.682143407E1
1.612012642E1	-3.748684168E0	-1.855012894E1	-3.294798374E0	1.920977910E1
1.613845282E1	-5.850590706E0	-1.953553009E1	-4.540484428E0	2.089215993E1
1.615680480E1	-3.088054895E0	-1.627476501E1	-4.243474960E0	1.710003331E1
1.617514397E1	-6.816990972E-1	-1.221730232E1	-1.945264220E0	1.238996540E1
1.619347032E1	7.882427573E-1	-9.283093452E0	-7.438435555E-1	9.346146475E0
1.621182230E1	1.455013871E0	-6.180782318E0	-4.911733866E-1	6.368703693E0
1.623016147E1	5.720045567E-1	-3.510524273E0	-1.689692020E0	3.937769547E0
1.624848787E1	-1.565843344E0	-3.530461311E0	-3.419101238E0	5.158127153E0
1.626683980E1	-2.419077873E0	-5.119249344E0	-2.737323284E0	6.289005515E0
1.628517902E1	-1.625212908E0	-7.266077995E0	-1.236650467E0	7.547616233E0
1.630350537E1	-8.267438412E-1	-1.032044220E1	-8.677426577E-1	1.038980317E1
1.632185735E1	-2.391421795E-1	-1.304330158E1	-1.085429907E0	1.309057154E1
1.634019652E1	5.090355873E-1	-1.398671341E1	-1.804554939E0	1.411182794E1
1.635853569E1	1.361433506E0	-1.381233788E1	-1.678129673E0	1.398035400E1
1.637687485E1	1.552473068E0	-1.260224247E1	-4.131245613E-1	1.270422606E1
1.639521407E1	5.839752555E-1	-9.954378128E0	-2.785611153E-2	9.971531827E0
1.641354043E1	-1.618663549E0	-5.933796883E0	-1.313875198E0	6.289378758E0
1.643189240E1	-2.682080269E0	3.273921967E0	-5.807629108E0	7.186144688E0
1.645023157E1	2.300549984E0	2.898211288E1	2.724509239E-1	2.907455291E1
1.646855798E1	7.207529545E0	4.269277954E1	6.165246964E0	4.373365040E1
1.648690990E1	-5.981277823E-1	8.509776115E0	3.224047422E0	9.119678073E0
1.650524912E1	-6.763927937E0	-7.121706009E-1	3.037900448E0	7.448942692E0
1.652357548E1	-4.116983414E0	1.256642246E1	4.862935066E0	1.408945220E1
1.654192746E1	2.444401026E0	2.614754677E1	7.388663292E0	2.728115913E1
1.656026662E1	5.071322441E0	2.037148285E1	8.349061012E0	2.259253073E1
1.657859303E1	3.123356581E0	1.521444321E1	5.068011284E0	1.633766742E1
1.659694501E1	-3.693478107E-1	1.709068298E1	2.677140713E0	1.730303283E1
1.661528418E1	-2.265136957E0	1.648480606E1	8.435359001E-1	1.666106927E1
1.663361058E1	-1.996613026E0	1.165710640E1	-3.408019543E-1	1.183176822E1
1.665196251E1	2.846398056E-1	6.953339577E0	1.175370216E-1	6.960155605E0
1.667030168E1	2.154429913E0	2.699236870E0	-6.873261929E-1	3.521344235E0
1.668862808E1	1.821873784E0	-8.252449036E-1	-1.210436225E0	2.337821441E0
1.670698006E1	8.371868730E-1	-4.757250786E0	1.912075281E-1	4.834136657E0
1.672531923E1	5.899369717E-2	-9.566839218E0	1.813209653E0	9.737331366E0
1.674364563E1	-1.571569681E0	-1.357068634E1	1.207791209E0	1.371466801E1
1.676199761E1	-4.085262775E0	-1.625686646E1	-7.580063343E-1	1.677944136E1
1.678033678E1	-6.559794903E0	-1.788281631E1	-4.256076813E0	1.951768988E1
1.679866319E1	-6.013216972E0	-1.672190666E1	-6.624642849E0	1.896488422E1
1.681701511E1	-2.424111366E0	-1.251858139E1	-4.883960724E0	1.365445965E1
1.683535428E1	1.090076566E-1	-1.051089764E1	-1.814114094E0	1.066685810E1
1.685368069E1	1.594538927E0	-8.621163368E0	-4.418720007E-1	8.778511439E0
1.687203267E1	2.001644611E0	-6.618842125E0	-8.594799042E-2	6.915420398E0
1.689037183E1	1.114280343E0	-4.539453983E0	-1.940898895E0	5.061161099E0
1.690869824E1	-6.374648809E-1	-4.119364262E0	-2.891686916E0	5.073201811E0
1.692705022E1	-1.194318175E0	-5.719511032E0	-1.827451229E0	6.121991534E0
1.694538938E1	-5.330032110E-1	-8.149703979E0	-1.553781152E0	8.313603505E0
1.696371579E1	1.052228808E-1	-1.087725925E1	-1.405853510E0	1.096823891E1
1.698206772E1	2.224432826E-1	-1.320779037E1	-1.549940825E0	1.330028286E1
1.700040694E1	2.865011692E-1	-1.402553940E1	-4.683412313E-1	1.403628091E1
1.701873334E1	-7.141906619E-1	-1.174881458E1	6.178145409E-1	1.178670468E1
1.703708527E1	-2.077996016E0	-7.669713497E0	-5.400673151E-1	7.964561838E0
1.705542444E1	-2.456236362E0	-2.000252724E0	-3.699438095E0	4.870313157E0
1.707375084E1	-4.280488789E-1	9.011895180E0	-1.053118348E0	9.083311006E0
1.709210282E1	9.121705055E0	3.947597504E1	9.991543770E0	4.172995393E1
1.711044199E1	1.630083442E0	3.348749924E1	1.467375946E1	3.659766378E1
1.712876840E1	-1.006491470E1	9.465374947E0	7.340284348E0	1.564530617E1
1.714712037E1	-1.187000275E1	8.252595901E0	-1.004193878E1	1.760235322E1
1.716545954E1	-3.273684025E0	1.673990250E1	-1.417503476E0	1.711580144E1
1.718378595E1	3.982407093E0	2.322192574E1	5.987767220E0	2.430989011E1
1.720213787E1	6.638309479E0	2.049190521E1	1.066007328E1	2.403377819E1
1.722047709E1	4.566677094E0	1.449736500E1	8.353776932E0	1.734398226E1
1.723880350E1	7.178176045E-1	1.258289814E1	2.999754190E0	1.295542793E1
1.725715543E1	-2.595902443E0	9.977673531E0	-3.879455090E0	1.101557308E1
1.727549459E1	-1.817657948E0	4.337021828E0	-2.749628305E0	5.447393374E0
1.729382105E1	4.917219579E-1	-7.893428802E-1	-8.212329149E-1	1.240675690E0
1.731217298E1	3.429593444E-1	-5.048181534E0	-1.828215837E0	5.379975005E0
1.733051214E1	-1.784948856E-1	-9.709443092E0	-4.704559445E-1	9.722472648E0
1.734883855E1	-6.654958725E-1	-1.448946381E1	7.429162264E-1	1.452375195E1
1.736719053E1	-2.727905750E0	-1.791569710E1	1.613582134E0	1.819388138E1
1.738552970E1	-6.201242447E0	-1.822248459E1	-1.778316259E0	1.933072066E1
1.740385610E1	-6.445281982E0	-1.526259327E1	-7.917540550E0	1.836234902E1
1.742220808E1	-3.227938890E0	-1.343207169E1	-5.760166168E0	1.496728611E1
1.744054725E1	5.784575939E-1	-1.183920097E1	-1.175685525E0	1.191148728E1
1.745887366E1	4.012585640E0	-8.732695580E0	3.711080551E-2	9.610525106E0
1.747722558E1	4.700427055E0	-4.161335945E0	-2.375896215E0	6.712347889E0
1.749556480E1	1.407926321E0	-2.059117794E0	-4.525011539E0	5.167006101E0
1.751389121E1	-9.458250999E-1	-4.358563900E0	-2.891432285E0	5.315265285E0
1.753224313E1	-1.573069096E0	-6.573841095E0	-2.147405624E0	7.092339814E0
1.755058230E1	-1.595722675E0	-9.000424385E0	-1.082328916E0	9.204640452E0
1.756890871E1	-2.670212030E0	-1.117339325E1	4.554808140E-1	1.149705231E1
1.758726069E1	-3.457448721E0	-1.237618446E1	7.606506348E-2	1.285027935E1
1.760559985E1	-2.024747372E0	-1.329552174E1	-1.521015525E0	1.353454796E1
1.762393907E1	-6.052304506E-1	-1.245667076E1	-2.684082031E0	1.275692936E1
1.764227824E1	-1.326117992E0	-8.835451126E0	-3.943825722E0	9.766142885E0
1.766061740E1	-1.551413417E0	-3.289866447E0	-4.118853092E0	5.495002787E0
1.767894381E1	-2.008367062E0	6.669055939E0	-9.887385368E-1	7.034731641E0
1.769729579E1	3.057860374E0	3.944527435E1	6.099680901E0	4.003106651E1
1.771563496E1	5.080461502E0	3.799127960E1	6.026742935E0	3.880038718E1
1.773396136E1	-7.694128752E-1	3.691415787E0	4.436207771E0	5.822240640E0
1.775231334E1	-7.666600943E-1	-1.417331696E0	1.224431515E0	2.023815547E0
1.777065251E1	-8.663198948E-1	1.302101040E1	3.458001852E0	1.350018514E1
1.778897892E1	-3.434669971E-2	2.108207321E1	1.073095322E1	2.365604252E1
1.780733084E1	1.002590299E0	1.871787643E1	9.374297142E0	2.095808990E1
1.782567006E1	1.350263357E-1	1.576752186E1	4.685062885E0	1.644940096E1
1.784399647E1	-2.739284992E0	1.566913986E1	6.372497082E-1	1.591953873E1
1.786234840E1	-5.138471603E0	1.484540176E1	-1.526396036E0	1.578352713E1
1.788068761E1	-4.694026470E0	1.153896618E1	1.353571415E-1	1.245792706E1
1.789901397E1	-2.034529448E0	7.463262558E0	2.654753923E0	8.178466634E0
1.791736595E1	4.742773175E-1	2.565887451E0	3.019238234E0	3.990553457E0
1.793570511E1	1.602903366E0	-1.739383221E0	1.185864449E0	2.645945517E0
1.795403152E1	1.508606315E0	-5.404692173E0	-7.083976269E-1	5.655830416E0
1.797238350E1	5.077499747E-1	-9.235295296E0	-1.360859394E0	9.348819579E0
1.799072267E1	-1.109592438E0	-1.347974014E1	-2.060879469E0	1.368144049E1
1.800904907E1	-3.388728142E0	-1.662620735E1	-2.719764233E0	1.718462588E1
1.802740105E1	-4.977743149E0	-1.858135223E1	-4.297685146E0	1.971077561E1
1.804574022E1	-2.984591246E0	-1.878420258E1	-4.605265141E0	1.956942816E1
1.806406662E1	4.193336964E-1	-1.354748440E1	-3.735024452E0	1.405918141E1
1.808241860E1	2.111235619E0	-1.043373108E1	-1.848453283E0	1.080448239E1
1.810075777E1	2.692037106E0	-8.266413689E0	-1.627548575E0	8.844748352E0
1.811908418E1	1.596807957E0	-5.805591106E0	-4.943585396E-2	6.021389179E0
1.813743610E1	5.287153721E-1	-3.994848251E0	-1.297169924E0	4.233320482E0
1.815577532E1	9.479439259E-2	-3.952524662E0	-4.091639996E0	5.689723634E0
1.817411449E1	-6.204406023E-1	-5.075624943E0	-3.051405907E0	5.954661460E0
1.819245366E1	-1.300543904E0	-7.640123367E0	-1.712943912E0	7.937069759E0
1.821079282E1	-2.847628117E0	-1.093777275E1	-2.176171064E0	1.150997737E1
1.822911923E1	-4.223495960E0	-1.382126331E1	-2.326808453E0	1.463828116E1
1.824747121E1	-2.330725908E0	-1.508231735E1	-1.397034645E0	1.532515206E1
1.826581037E1	2.014297843E-1	-1.306117249E1	1.477136612E-1	1.306356077E1
1.828413678E1	-6.373089552E-1	-8.561800003E0	-9.058736563E-1	8.633144797E0
1.830248876E1	-1.949817181E0	-1.501863480E0	-5.195425034E0	5.748897479E0
1.832082793E1	-5.125379562E-1	1.505276966E1	-1.595742106E0	1.514579026E1
1.833915433E1	1.152441406E1	4.537450790E1	7.051834106E0	4.734328306E1
1.835750631E1	5.482185364E0	1.714097595E1	4.205583572E0	1.848118898E1
1.837584548E1	-3.376393080E0	-1.991682053E-1	2.461254597E0	4.182998015E0
1.839417188E1	-5.135981560E0	1.260086346E1	9.648345947E0	1.668084668E1
1.841252386E1	3.030705452E-1	1.847714806E1	1.042901421E1	2.121935883E1
1.843086303E1	-8.244824409E-2	2.115592575E1	1.024461651E1	2.350600263E1
1.844918944E1	-1.918550014E0	1.712231827E1	3.767784834E0	1.763663289E1
1.846754136E1	-1.930403233E0	1.555878639E1	9.491624832E-1	1.570678834E1
1.848588058E1	-2.171660900E0	1.540521622E1	2.625274897E0	1.577747971E1
1.850420699E1	-2.134431601E0	1.421758366E1	2.016530037E0	1.451764019E1
1.852255892E1	-7.413911819E-1	1.025924587E1	-2.021063566E-1	1.028798492E1
1.854089813E1	2.694182396E0	4.100062370E0	-1.326084733E0	5.082089230E0
1.855922449E1	3.337011814E0	-9.289684296E-1	-1.836519480E0	3.920642038E0
1.857757647E1	1.625012279E0	-4.979071617E0	-8.155219555E-1	5.300650444E0
1.859591563E1	3.929469287E-1	-1.002215195E1	8.038848042E-1	1.006201609E1
1.861424204E1	-1.046921372E0	-1.515660477E1	4.168107510E-1	1.519843556E1
1.863259402E1	-4.028768539E0	-1.822536278E1	-1.425476074E-1	1.866588182E1
1.865093319E1	-6.824721336E0	-1.909322739E1	-1.580595136E0	2.033780800E1
1.866925959E1	-6.222744465E0	-1.635009384E1	-4.522973537E0	1.806946062E1
1.868761157E1	-3.429617167E0	-1.237022209E1	-5.038115025E0	1.379011499E1
1.870595074E1	-4.369402528E-1	-9.974523544E0	-4.173872948E0	1.082142560E1
1.872427715E1	1.588940620E0	-7.807531834E0	-1.160733819E0	8.051682348E0
1.874262907E1	2.990618467E0	-6.043075085E0	1.545939922E0	6.917549099E0
1.876096829E1	2.794159412E0	-5.602098465E0	1.732980013E-1	6.262656483E0
1.877929470E1	6.360611320E-1	-6.316056252E0	-2.564123869E0	6.846303495E0
1.879764662E1	-5.732927322E-1	-7.301140785E0	-2.101425171E0	7.619140967E0
1.881598584E1	-1.578490853E0	-8.869069099E0	-2.041762829E0	9.236926735E0
1.883431220E1	-2.713083267E0	-1.046274471E1	-2.230915308E0	1.103661320E1
1.885266418E1	-2.537728310E0	-1.214707756E1	-2.159110069E0	1.259576574E1
1.887100334E1	-7.492914796E-1	-1.329411125E1	-5.696787834E-1	1.332739155E1
1.888934256E1	6.974717379E-1	-1.188140297E1	5.146622658E-2	1.190196841E1
1.890768173E1	1.247769445E-1	-7.917462349E0	-1.586727977E0	8.075858159E0
1.892602090E1	1.643325686E-1	-1.345898628E0	-5.576910973E0	5.739371421E0
1.894434730E1	6.685562134E-1	1.036306953E1	-4.173045635E0	1.119171513E1
1.896269928E1	6.165421486E0	4.116133881E1	5.192624092E0	4.194319467E1
1.898103845E1	8.320010900E-1	2.424694633E1	6.357221127E0	2.508028893E1
1.899936485E1	-6.987222672E0	4.175682068E-1	5.262060165E-1	7.019439909E0
1.901771683E1	-8.483549118E0	6.776065826E-1	4.639479637E0	9.693014372E0
1.903605600E1	-7.872557640E-1	4.752050400E0	8.302341461E0	9.598470106E0
1.905438241E1	6.391333580E0	1.559191799E1	8.087570190E0	1.869133070E1
1.907273433E1	4.447486401E0	1.821344757E1	7.691760540E0	2.026506817E1
1.909107355E1	5.202686787E-2	1.289993191E1	8.875117302E-1	1.293053081E1
1.910939990E1	-2.957939625E0	1.254099655E1	2.087425232E0	1.305309716E1
1.912775188E1	-3.917321682E0	1.433187866E1	6.694960594E0	1.629633862E1
1.914609105E1	-4.060138226E0	1.489208317E1	7.484565735E0	1.715452091E1
1.916441746E1	-3.121612072E0	1.275719643E1	2.956651211E0	1.346225497E1
1.918276944E1	1.474967301E-1	8.883410454E0	-2.330726862E0	9.185261253E0
1.920110860E1	3.364250660E0	6.040286064E0	-3.675504208E0	7.830234314E0
1.921943501E1	2.807608128E0	2.616449356E0	-1.942882299E0	4.301541847E0
1.923778699E1	5.157499313E-1	-2.103935242E0	-1.072728634E-1	2.168881961E0
1.925612616E1	-2.734727859E-1	-7.154438972E0	2.014567852E-1	7.162497414E0
1.927445256E1	-5.545998812E-1	-1.169465637E1	2.407479286E-1	1.171027447E1
1.929280454E1	-1.313904166E0	-1.511360073E1	-5.247553587E-1	1.517967850E1
1.931114371E1	-2.958693027E0	-1.698241806E1	-2.398255110E0	1.740425279E1
1.932947011E1	-3.745913267E0	-1.644532204E1	-5.133221626E0	1.763038421E1
1.934782204E1	-2.126929522E0	-1.313371372E1	-6.510024071E0	1.481211257E1
1.936616126E1	-1.806075573E-1	-1.030959320E1	-5.173277855E0	1.153616638E1
1.938448767E1	1.086595654E0	-8.417287827E0	-2.985941648E0	8.997070190E0
1.940283959E1	1.395443916E0	-6.626152992E0	-1.723182201E-2	6.771518599E0
1.942117876E1	9.588110447E-1	-6.079277039E0	5.139663219E-1	6.175847255E0
1.943951798E1	8.704614043E-1	-6.853882790E0	-3.049609661E-1	6.915664360E0
1.945785715E1	3.276613951E-1	-7.889793873E0	-5.879176855E-1	7.918450388E0
1.947619631E1	-8.150423765E-1	-9.081630707E0	-1.478483081E0	9.237219419E0
1.949452272E1	-2.663733959E0	-1.049574757E1	-2.373558521E0	1.108557512E1
1.951287470E1	-4.253101349E0	-1.123924160E1	-3.213778496E0	1.243936474E1
1.953121386E1	-4.931322575E0	-1.244157791E1	-2.744390011E0	1.366171584E1
1.954954027E1	-4.265830040E0	-1.296770954E1	-4.071867466E-1	1.365740084E1
1.956789220E1	-3.896629333E0	-1.059062862E1	8.609199524E-1	1.131752261E1
1.958623142E1	-2.665897846E0	-6.053899765E0	-1.191681385E0	6.721370263E0
1.960455782E1	5.790867209E-1	2.707212448E0	-4.131382465E0	4.973194320E0
1.962290975E1	3.788670778E0	2.576675034E1	8.848924637E-1	2.605882737E1
1.964124892E1	6.629324913E0	3.838101196E1	2.094209194E0	3.900558601E1
1.965957532E1	1.369362235E0	5.652786255E0	-3.316595554E-1	5.825731150E0
1.967792730E1	3.595671892E0	-8.817197800E0	1.943671703E0	9.718523195E0
1.969626647E1	-3.474601507E-1	1.322735786E0	1.089694309E1	1.098242811E1
1.971459287E1	-2.140365124E0	1.321352100E1	9.692029953E0	1.652615336E1
1.973294485E1	-1.819318414E0	2.025169754E1	6.481072426E0	2.134116849E1
1.975128402E1	-1.460070968E0	1.775495148E1	2.502471924E0	1.798978807E1
1.976961043E1	-2.892374754E0	1.489548588E1	5.103154182E0	1.600885736E1
1.978796235E1	-3.084715605E0	1.424062634E1	7.695920944E0	1.647841339E1
1.980630157E1	-2.344606876E0	1.260488224E1	7.342576981E0	1.477476478E1
1.982462798E1	-1.148091435E0	1.270253849E1	4.551180840E0	1.354200299E1
1.984297990E1	-3.215622902E-2	1.404239178E1	9.621891975E-1	1.407535466E1
1.986131912E1	2.536605120E0	1.298696613E1	-5.197213650E0	1.421642306E1
1.987964548E1	4.474906921E0	7.908497810E0	-4.912724018E0	1.032976219E1
1.989799746E1	3.019257307E0	1.669197083E0	-1.234466910E0	3.664156402E0
1.991633662E1	1.319045424E0	-3.583323479E0	2.746403217E-2	3.818486907E0
1.993466303E1	2.057455927E-1	-7.800453186E0	5.074118376E-1	7.819646279E0
1.995301501E1	-5.894906521E-1	-1.191565418E1	8.268201351E-1	1.195884381E1
1.997135418E1	-1.352092028E0	-1.606077003E1	5.387120247E-1	1.612658357E1
1.998968058E1	-3.935911894E0	-1.866784477E1	-3.149562359E0	1.933648298E1
2.000803256E1	-8.487564087E0	-1.702971268E1	-6.558353424E0	2.012614860E1
2.002637173E1	-6.703128815E0	-1.266404819E1	-6.081210136E0	1.556570491E1
2.004469813E1	-1.629579544E0	-1.019460583E1	-3.518944025E0	1.090726751E1
2.006305006E1	1.427125812E0	-8.844597816E0	4.470142126E-1	8.970140485E0
2.008138928E1	2.747306347E0	-7.309244633E0	1.644145489E0	7.979722029E0
2.009971569E1	3.038846970E0	-5.435211182E0	-5.603551865E-2	6.227298891E0
2.011806761E1	1.821842909E0	-6.143998146E0	-1.636507988E0	6.614074629E0
2.013640678E1	-6.493650675E-1	-7.704472542E0	-2.846792221E0	8.239223148E0
2.015473319E1	-2.238330364E0	-8.881843567E0	-3.631892681E0	9.853319868E0
2.017308517E1	-3.665829420E0	-9.541464806E0	-2.996925592E0	1.065173314E1
2.019142433E1	-4.288359165E0	-1.028911209E1	-3.022863865E0	1.154961289E1
2.020975074E1	-2.360959530E0	-1.154516411E1	-2.497044563E0	1.204575343E1
2.022810272E1	4.003304243E-1	-1.256577206E1	-6.526993513E-1	1.258907893E1
2.024644188E1	1.287793159E0	-1.188419342E1	4.941158295E-1	1.196397154E1
2.026476829E1	-8.376377076E-2	-7.812857151E0	-2.323198318E-1	7.816759286E0
2.028312022E1	-5.938339233E-2	-2.527399540E0	-5.360429764E0	5.926675466E0
2.030145944E1	2.980642319E-1	1.279482746E1	-5.166641235E0	1.380183443E1
2.031978584E1	3.190627813E0	4.541844559E1	1.983985186E0	4.557358339E1
2.033813777E1	-1.926051974E-1	1.776075554E1	5.664277077E-1	1.777082931E1
2.035648552E1	-1.424490690E0	-5.367083549E0	7.139837265E0	9.045000593E0
2.037481192E1	3.770220280E-2	-2.659213543E0	1.409022236E1	1.433900988E1
2.039316385E1	-1.558452368E0	9.251058578E0	9.508662224E0	1.335760143E1
2.041150307E1	-2.679709435E0	1.626111221E1	2.041562319E0	1.660640207E1
2.042982948E1	-9.390246868E-2	1.539734173E1	1.412999868E0	1.546232578E1
2.044817834E1	5.697763562E-1	1.289736843E1	6.686369896E0	1.453871727E1
2.046651751E1	4.668951035E-3	1.276873398E1	1.136140251E1	1.709157852E1
2.048484391E1	-1.307640553E0	1.299532032E1	9.046722412E0	1.588809178E1
2.050319589E1	-2.596760750E0	1.458962536E1	3.559546709E0	1.524043002E1
2.052153506E1	-2.619089842E0	1.442252064E1	-2.362213612E0	1.484751785E1
2.053986146E1	-3.321583867E-1	1.270734501E1	-3.524983883E0	1.319137816E1
2.055821344E1	2.229578972E0	9.662046432E0	-1.458917379E0	1.002270440E1
2.057655261E1	2.219395638E0	5.278661728E0	-2.082992315E0	6.093344207E0
2.059487902E1	9.683212042E-1	2.111635208E-1	-1.874010205E0	2.119941093E0
2.061323100E1	-4.494179487E-1	-4.431011677E0	-1.450191736E0	4.683897634E0
2.063157016E1	-4.256949425E-1	-9.245794296E0	-1.077994466E0	9.318154346E0
2.064989657E1	-2.409017086E-1	-1.417022800E1	-4.286438227E-1	1.417875632E1
2.066824855E1	-1.330813527E0	-1.721711731E1	-2.013843060E0	1.738550422E1
2.068658771E1	-3.662772179E0	-1.802269363E1	-3.671954155E0	1.875410977E1
2.070491412E1	-4.542784214E0	-1.655451012E1	-5.022480965E0	1.788614013E1
2.072326610E1	-1.518017888E0	-1.347065258E1	-4.435963631E0	1.426326164E1
2.074160527E1	9.179381728E-1	-1.136768627E1	-2.159441471E0	1.160732911E1
2.075993167E1	1.395587206E0	-9.148303986E0	3.514492512E-1	9.260812385E0
2.077828365E1	1.854704618E-1	-6.624745846E0	-3.343499899E-1	6.635770244E0
2.079662282E1	-6.670682430E-1	-4.195941448E0	-3.410060406E0	5.447881850E0
2.081494922E1	-1.490167379E0	-4.040847778E0	-3.548061371E0	5.580124468E0
2.083330120E1	-1.478474259E0	-5.859493256E0	-2.966244221E0	6.731875825E0
2.085164037E1	-9.538671970E-1	-8.158185005E0	-2.506630421E0	8.587726199E0
2.086996678E1	-1.341749549E0	-1.045596313E1	-2.469447136E0	1.082707837E1
2.088831876E1	-1.994533539E0	-1.235039806E1	-3.137518883E0	1.289784948E1
2.090665797E1	-2.035970926E0	-1.323095036E1	-2.673956156E0	1.365112693E1
2.092498438E1	-8.900265694E-1	-1.318151093E1	-1.028449416E0	1.325149372E1
2.094333631E1	-7.285317034E-2	-1.097986984E1	8.564043045E-1	1.101345893E1
2.096167553E1	-2.280173302E-1	-7.178689957E0	2.610926628E-1	7.187054388E0
2.098000193E1	1.438036203E0	-1.947044373E0	-4.590771198E0	5.189808292E0
2.099835391E1	3.339174747E0	1.174316597E1	-7.964477539E-1	1.223463788E1
2.101669308E1	4.649493217E0	4.227161407E1	9.994384766E0	4.368517907E1
2.103501949E1	-4.466333866E0	2.237352371E1	3.230330706E0	2.304252022E1
2.105337146E1	-6.509705544E0	1.980006218E0	5.063171387E-1	6.822979403E0
2.107171063E1	-3.890845776E0	2.981905937E0	8.014380455E0	9.394718620E0
2.109003704E1	1.989835382E0	1.035047054E1	1.249132156E1	1.634395300E1
2.110838902E1	2.956695557E0	1.904290390E1	1.256319046E1	2.300452112E1
2.112672824E1	-1.047548771E0	1.869124031E1	5.624888420E0	1.954735769E1
2.114505464E1	-2.926262379E0	1.421925163E1	-1.687949657E0	1.461503686E1
2.116340657E1	-4.033349514E0	1.283119011E1	5.632829666E-2	1.345029817E1
2.118174579E1	-3.070055008E0	1.320202255E1	4.526905060E0	1.429025915E1
2.120007219E1	-1.688378334E0	1.315131187E1	5.657369137E0	1.441573623E1
2.121842417E1	-1.870309711E-1	1.132527447E1	2.968359947E0	1.170931181E1
2.123676334E1	1.892563581E0	8.658447266E0	-4.924010277E0	1.013885512E1
2.125508975E1	2.990174055E0	6.021432877E0	-4.239631653E0	7.948161506E0
2.127344172E1	1.543104649E0	2.251913071E0	-3.032668114E0	4.080362768E0
2.129178094E1	3.192226589E-1	-2.700241089E0	-2.525825024E0	3.711198876E0
2.131010735E1	3.475239873E-1	-7.798617363E0	-9.060919285E-1	7.858766333E0
2.132845933E1	5.577855110E-1	-1.242878532E1	8.694682121E-1	1.247164000E1
2.134679850E1	-2.485868931E-1	-1.576348305E1	9.643156528E-1	1.579490734E1
2.136512490E1	-2.380091190E0	-1.792355347E1	-1.098424673E0	1.811422479E1
2.138347688E1	-3.825258017E0	-1.793434525E1	-4.449207306E0	1.886978495E1
2.140181610E1	-2.945644379E0	-1.732056046E1	-4.715068340E0	1.819094568E1
2.142014251E1	-1.788504362E0	-1.534746265E1	-2.744071960E0	1.569309685E1
2.143849448E1	-7.561093569E-1	-1.132187080E1	-1.011700511E0	1.139210243E1
2.145683365E1	-4.169113338E-1	-6.529563904E0	-1.444077015E0	6.700326728E0
2.147516006E1	-3.633654416E-1	-2.571193695E0	-2.683784962E0	3.734403993E0
2.149351204E1	4.032854736E-1	-8.003139496E-1	-3.229324818E0	3.351369924E0
2.151185126E1	6.491196156E-1	-3.768061161E0	-4.255739689E0	5.721097927E0
2.153017766E1	-5.858972669E-2	-7.648887634E0	-3.766719341E0	8.526258816E0
2.154852964E1	-1.153178096E0	-9.919009209E0	-3.137980223E0	1.046725768E1
2.156686881E1	-1.277377725E0	-1.163685226E1	-3.310250521E0	1.216576274E1
2.158519521E1	-4.613564312E-1	-1.247160149E1	-2.478144407E0	1.272379240E1
2.160354719E1	7.938089371E-1	-1.315513802E1	-9.466965199E-1	1.321302475E1
2.162188641E1	1.027916193E0	-1.131713390E1	-4.398217201E-1	1.137222822E1
2.164021282E1	1.592797488E-1	-7.191760063E0	-3.839409351E0	8.154008034E0
2.165856480E1	-2.435309291E-1	-5.092525482E-1	-6.792711735E0	6.816126333E0
2.167690396E1	-4.600507021E-1	1.834836197E1	7.587358952E-1	1.836980440E1
2.169523037E1	3.271518469E0	4.511646271E1	7.181105614E0	4.580137900E1
2.171358235E1	-4.108592272E-1	1.579262066E1	4.625716209E0	1.646125521E1
2.173192157E1	-3.401239395E0	-2.751167774E0	6.558422089E0	7.883543229E0
2.175024797E1	-4.404209614E0	1.110371590E0	1.274177551E1	1.352711464E1
2.176859995E1	-3.185007095E0	1.691904831E1	1.028172874E1	2.005274076E1
2.178693917E1	-5.596293211E-1	2.017836761E1	5.939532280E0	2.104180953E1
2.180526558E1	1.749083281E0	1.586889935E1	4.677734375E0	1.663617918E1
2.182361756E1	-2.508365512E-1	1.516119671E1	5.114526749E0	1.600259943E1
2.184195672E1	-2.777228355E0	1.593358803E1	3.096434116E0	1.646754775E1
2.186028313E1	-4.272330284E0	1.360110760E1	1.838449478E0	1.437438104E1
2.187863511E1	-3.452250719E0	1.079189873E1	9.672861099E-1	1.137184047E1
2.189697433E1	6.371668577E-1	8.883155823E0	-1.126253843E0	8.976908527E0
2.191530074E1	4.643043518E0	5.813356400E0	-1.821138382E0	7.659602519E0
2.193365271E1	4.926631927E0	2.150363922E0	-2.232773542E0	5.820742636E0
2.195199193E1	2.368693829E0	-2.638769150E0	-3.266036510E0	4.820872075E0
2.197031834E1	9.758434296E-1	-7.550929070E0	-2.514433384E0	8.018177814E0
2.198867032E1	-3.426405787E-1	-1.202866554E1	-2.573058844E0	1.230556090E1
2.200700948E1	-2.691481113E0	-1.631680870E1	-4.046889782E0	1.702526457E1
2.202533589E1	-6.126537323E0	-1.802733994E1	-6.463395596E0	2.010708650E1
2.204368787E1	-7.549912453E0	-1.768667030E1	-5.522883415E0	2.000804153E1
2.206202709E1	-5.231273651E0	-1.563648415E1	-1.583417892E0	1.656421060E1
2.208035350E1	-1.509659171E0	-1.211393547E1	-6.668686867E-3	1.220764301E1
2.209870547E1	1.470092535E0	-9.495045662E0	1.029305458E0	9.663153414E0
2.211704469E1	3.347963810E0	-7.313841820E0	3.112919331E-1	8.049723381E0
2.213537110E1	3.431931019E0	-4.312422752E0	-3.803461075E0	6.696376383E0
2.215372308E1	7.739118338E-1	-3.067927837E0	-4.000674248E0	5.100638703E0
2.217206225E1	-1.496171236E0	-4.769040585E0	-3.107703924E0	5.885584095E0
2.219038865E1	-2.095882177E0	-6.362671852E0	-2.190106630E0	7.047899137E0
2.220874063E1	-2.469075441E0	-8.456516266E0	-2.049277544E0	9.044807314E0
2.222707985E1	-2.692474365E0	-1.153886795E1	-2.716397762E0	1.215622098E1
2.224540626E1	-9.968210459E-1	-1.365760708E1	-3.876660824E0	1.423208988E1
2.226375824E1	2.205609798E0	-1.376744652E1	-2.713521242E0	1.420459418E1
2.228209745E1	4.183467865E0	-1.157358646E1	3.264479637E-1	1.231080319E1
2.230042386E1	1.970973015E0	-8.070240021E0	2.960200310E-1	8.312709334E0
2.231877584E1	5.743609667E-1	-1.630691051E0	-3.238293648E0	3.670911273E0
2.233711501E1	3.124244690E0	1.505057430E1	-2.433313847E0	1.556283098E1
2.235544146E1	2.126722813E0	4.706936264E1	1.076055336E1	4.833050132E1
2.237379344E1	-7.164651871E0	1.568954945E1	-2.444261074E0	1.742035047E1
2.239213261E1	-6.587559223E0	-3.178534508E0	-1.494240046E0	7.465371488E0
2.241045902E1	-6.147980213E0	-1.921291828E0	6.607683659E0	9.227703199E0
2.242881100E1	4.791733623E-1	5.535406113E0	1.155009651E1	1.281698316E1
2.244715021E1	3.811284065E0	1.414327526E1	1.056231308E1	1.805880890E1
2.246547662E1	7.829803228E-1	1.829829407E1	6.695748329E0	1.950060690E1
2.248382860E1	-2.379358768E0	1.164078236E1	1.741943836E0	1.200847744E1
2.250216782E1	-2.188588142E0	8.980873108E0	4.654146194E0	1.034925488E1
2.252049422E1	-1.974015713E0	9.791800499E0	9.054146767E0	1.348160483E1
2.253884620E1	-3.263618469E0	1.301204205E1	9.484921455E0	1.642949113E1
2.255718542E1	-4.071627617E0	1.634853172E1	4.222885132E0	1.736909323E1
2.257551183E1	-3.874659300E0	1.488072014E1	-3.662306786E0	1.580700185E1
2.259386381E1	-5.127316117E-1	1.098047161E1	-4.256963730E0	1.178793412E1
2.261220297E1	2.403406620E0	6.159978867E0	-2.447009563E0	7.050500608E0
2.263052943E1	2.025609255E0	1.909687996E0	-1.653815985E0	3.238071711E0
2.264888136E1	4.684756100E-1	-2.238196373E0	-1.540478230E0	2.757184357E0
2.266722058E1	1.874002814E-1	-6.547229767E0	-1.752457380E0	6.780298176E0
2.268554699E1	1.120600700E-1	-1.021852875E1	-1.621715903E0	1.034702130E1
2.270389896E1	7.140368223E-2	-1.436800575E1	-2.493805170E0	1.458299530E1
2.272223818E1	-8.391941190E-1	-1.750729752E1	-2.441320419E0	1.769660302E1
2.274056459E1	-2.638309002E0	-1.822899055E1	-3.913089037E0	1.883000363E1
2.275891657E1	-2.053229332E0	-1.657688522E1	-3.977611542E0	1.717062224E1
2.277725579E1	3.522747755E-2	-1.321815872E1	-3.497983932E0	1.367321661E1
2.279558219E1	8.183443546E-1	-1.038950539E1	-2.177860737E0	1.064681112E1
2.281393417E1	1.249680281E0	-7.906162739E0	-1.401006699E0	8.126003312E0
2.283227334E1	1.264683843E0	-5.722364426E0	-1.796021461E0	6.129483904E0
2.285059980E1	9.735087752E-1	-3.501964569E0	-2.089651585E0	4.192626733E0
2.286895178E1	2.208242416E-1	-3.546438694E0	-3.315996885E0	4.860229017E0
2.288729094E1	-6.438089609E-1	-5.663120270E0	-3.551124096E0	6.715348354E0
2.290561735E1	-1.430489302E0	-8.283098221E0	-3.305351734E0	9.032240357E0
2.292396933E1	-3.070111752E0	-1.127180195E1	-1.989266872E0	1.185058176E1
2.294230855E1	-4.446251869E0	-1.331341076E1	-1.891044855E0	1.416305449E1
2.296063495E1	-3.819273233E0	-1.442165565E1	-2.178689003E0	1.507705826E1
2.297898693E1	-2.408936262E0	-1.317492771E1	-6.330039501E-1	1.340829550E1
2.299732615E1	-1.454221249E0	-8.538012505E0	-1.599843144E0	8.807491984E0
2.301565256E1	3.877425194E-1	-3.841827869E0	-5.947797775E0	7.091282255E0
2.303400454E1	2.332639933E0	8.370847702E0	-5.553688526E0	1.031289273E1
2.305234370E1	9.731848717E0	4.962541962E1	6.420349121E0	5.097658320E1
2.307067016E1	4.468027115E0	2.805460739E1	9.086539745E-1	2.842270068E1
2.308902214E1	-2.730657816E0	-3.790002346E0	1.070770264E0	4.792406373E0
2.310736131E1	-1.726808906E0	-5.724247932E0	6.890807629E0	9.123163550E0
2.312570053E1	4.500663280E-2	3.454263687E0	5.206246376E0	6.248116880E0
2.314403974E1	6.232210398E-1	4.095930099E0	3.861081123E0	5.663302507E0
2.316237891E1	1.185550451E0	8.389900208E0	7.727623463E0	1.146787338E1
2.318070532E1	-4.030207634E0	1.131686592E1	8.377529144E0	1.464571686E1
2.319905730E1	-4.777938843E0	9.447804451E0	7.430099964E0	1.293429913E1
2.321739652E1	-2.792549610E0	7.905339241E0	6.795927525E0	1.079246741E1
2.323572292E1	-2.036191463E0	9.298266411E0	6.301263332E0	1.141532976E1
2.325407490E1	-2.244973421E0	1.240137291E1	6.740966320E0	1.429246594E1
2.327241412E1	-2.016535759E0	1.326891518E1	6.149370670E0	1.476297010E1
2.329074053E1	-8.864089847E-1	1.276257896E1	3.758093834E0	1.333388210E1
2.330909251E1	3.605633378E-1	1.262586594E1	2.523634911E0	1.288065331E1
2.332743167E1	3.472778082E0	1.176307869E1	-2.071011782E0	1.243862121E1
2.334575813E1	6.119554996E0	9.034943581E0	-5.741707802E0	1.233070831E1
2.336411006E1	3.068185329E0	5.458417892E0	-4.120123386E0	7.495565611E0
2.338244928E1	6.722366810E-2	1.661901474E-1	-1.806678534E0	1.815551021E0
2.340077568E1	2.722185850E-2	-4.733511925E0	1.310350895E-1	4.735403506E0
2.341912766E1	-8.334057331E-1	-8.922431946E0	-6.778655052E-1	8.986871457E0
2.343746688E1	-2.906362534E0	-1.317712021E1	-2.749748230E0	1.377114939E1
2.345579329E1	-4.300704956E0	-1.747046280E1	-2.472300053E0	1.816109581E1
2.347414527E1	-4.220720291E0	-1.974956894E1	-2.889841318E0	2.040125329E1
2.349248449E1	-9.480242729E-1	-1.942135429E1	-3.132674217E0	1.969521263E1
2.351081089E1	3.710606098E-1	-1.588683414E1	-2.484084845E0	1.608414942E1
2.352916287E1	-3.761840463E-1	-1.173352051E1	-2.383332014E0	1.197903541E1
2.354750204E1	-1.148727417E0	-6.836821556E0	-3.292586803E0	7.674818013E0
2.356582850E1	-2.339817524E0	-2.995345116E0	-3.505134583E0	5.170377825E0
2.358418047E1	-2.611577272E0	-2.174365044E0	-1.339439631E0	3.652711009E0
2.360251964E1	-6.688982248E-1	-4.116269112E0	-2.730926037E0	4.984882471E0
2.362084605E1	3.980602622E-1	-6.125916481E0	-4.335052967E0	7.515183892E0
2.363919803E1	6.503109932E-1	-8.389004707E0	-3.688316107E0	9.187055027E0
2.365753724E1	3.919086456E-1	-1.041615582E1	-2.513003111E0	1.072217697E1
2.367586365E1	3.950321674E-2	-1.223535538E1	-2.266751528E0	1.244361861E1
2.369421563E1	-2.919423580E-2	-1.378180695E1	-2.386288881E0	1.398690207E1
2.371255485E1	-7.992372513E-1	-1.356581974E1	-2.213526249E0	1.376844014E1
2.373088126E1	-1.965076327E0	-1.192777252E1	-1.277163267E0	1.215583927E1
2.374923324E1	-2.112010479E0	-9.041073799E0	-1.535778761E0	9.410643979E0
2.376757240E1	-1.684707284E0	-5.694975853E0	-4.288965702E0	7.325722858E0
2.378589886E1	-1.000012517E0	2.450078964E0	-7.900606632E0	8.332016390E0
2.380425084E1	3.606669903E0	2.970291138E1	3.871446609E0	3.017050067E1
2.382259001E1	8.647819519E0	4.372909546E1	7.431709290E0	4.519124777E1
2.384091641E1	-1.354440451E0	7.458750725E0	2.062780380E0	7.856369022E0
2.385926839E1	-6.270669937E0	-6.455676079E0	6.743068695E-1	9.025062041E0
2.387760761E1	-2.539545536E0	5.094616890E0	6.506865501E0	8.645444548E0
2.389593402E1	2.581770658E0	1.283142185E1	6.976058483E0	1.483159865E1
2.391428600E1	4.559373856E0	1.616907501E1	6.109641552E0	1.787609008E1
2.393262521E1	-9.299769402E-1	1.397064686E1	6.690831661E0	1.551808813E1
2.395095162E1	-5.069915771E0	1.178718185E1	6.601373196E0	1.442982433E1
2.396930360E1	-3.477788210E0	9.632564545E0	7.080565929E0	1.245053109E1
2.398764277E1	-2.952209949E0	1.034470844E1	6.910871029E0	1.278626899E1
2.400596917E1	-3.464500189E0	1.384961796E1	5.544411659E0	1.531519441E1
2.402432115E1	-3.563190699E0	1.477694798E1	2.723517656E0	1.544254085E1
2.404266037E1	-1.727946043E0	1.352841187E1	-2.052317619E0	1.379187198E1
2.406098678E1	1.629658461E0	1.115888596E1	-3.363815546E0	1.176825295E1
2.407933876E1	3.341138124E0	6.291040421E0	-2.632640123E0	7.594154828E0
2.409767797E1	2.999364376E0	9.517879486E-1	-1.001216650E0	3.302199531E0
2.411600438E1	1.839985967E0	-2.840174198E0	-1.720459461E-1	3.388471284E0
2.413435636E1	9.564852715E-1	-6.344512939E0	-8.899366856E-1	6.477630417E0
2.415269553E1	2.604579926E-1	-1.026768112E1	-1.577546835E0	1.039142762E1
2.417102199E1	-1.710903883E0	-1.380287170E1	-3.117498636E0	1.425360506E1
2.418937396E1	-5.018907070E0	-1.716784096E1	-3.964726925E0	1.832056907E1
2.420771313E1	-6.507031441E0	-1.996770096E1	-3.833448410E0	2.134820523E1
2.422603954E1	-2.646133661E0	-1.860932732E1	-3.155342817E0	1.905951927E1
2.424439152E1	3.995473385E-1	-1.381548977E1	-1.760532737E0	1.393294194E1
2.426273074E1	1.605216026E0	-1.031288242E1	-2.223496437E-1	1.043943014E1
2.428105714E1	1.026072860E0	-6.024506569E0	-1.328375697E0	6.253965694E0
2.429940912E1	-7.051361799E-1	-2.189120293E0	-3.967778206E0	4.586145285E0
2.431774834E1	-2.572335958E0	-2.713121414E0	-3.568049908E0	5.168067360E0
2.433608751E1	-2.119711399E0	-4.786399364E0	-3.080924273E0	6.074116369E0
2.435442672E1	-1.469382167E0	-7.325184822E0	-3.341398478E0	8.184275192E0
2.437276589E1	-1.322126627E0	-9.916769028E0	-3.508362293E0	1.060183629E1
2.439109230E1	-1.059155822E0	-1.149994564E1	-3.222118855E0	1.198968768E1
2.440944428E1	1.046401262E-2	-1.175859356E1	-3.444501877E0	1.225272317E1
2.442778350E1	1.223204613E0	-1.225678158E1	-2.919776201E0	1.265898958E1
2.444610990E1	1.177031159E0	-1.188990021E1	-9.854760170E-1	1.198859009E1
2.446446188E1	-9.987260103E-1	-9.536935806E0	-8.565921783E-1	9.627271076E0
2.448280110E1	-3.570480585E0	-4.816699028E0	-2.236584663E0	6.399314970E0
2.450112751E1	-4.389706612E0	1.235571861E0	-5.337494373E0	7.020328208E0
2.451947948E1	5.426052809E-1	1.467440891E1	-1.987318635E0	1.481830398E1
2.453781865E1	9.339065552E0	4.679433441E1	6.705983162E0	4.818607775E1
2.455614511E1	4.441706657E0	2.139941406E1	-2.072150230E0	2.195353017E1
2.457449709E1	-4.442822456E0	-2.648056030E0	-3.451076508E0	6.217781049E0
2.459283626E1	-9.418360710E0	-2.623463631E0	4.498326778E0	1.076211056E1
2.461116266E1	-1.781260967E-2	4.049009323E0	1.035315609E1	1.111677268E1
2.462951464E1	6.334099770E0	8.503729820E0	7.034491062E0	1.272471238E1
2.464785386E1	4.650605679E0	1.397687340E1	4.773046017E0	1.548428531E1
2.466618027E1	-3.053729296E0	9.058323860E0	4.515526295E0	1.057206089E1
2.468453224E1	-9.160429001E0	7.695968628E0	5.949669361E0	1.336188453E1
2.470287146E1	-5.611495972E0	6.320557594E0	7.366273880E0	1.121161568E1
2.472119787E1	-1.106408834E0	7.120126724E0	5.720096588E0	9.199991851E0
2.473954985E1	1.223957539E-2	1.000823402E1	5.583359718E0	1.146031430E1
2.475788902E1	-5.355061889E-1	1.357186699E1	5.460951805E0	1.463913710E1
2.477621542E1	-5.279474258E-1	1.614676857E1	1.689135790E0	1.624346156E1
2.479456740E1	-2.788865566E-2	1.534648991E1	-5.771182060E0	1.639579436E1
2.481290662E1	-8.688258529E-1	1.043950272E1	-3.842942715E0	1.115823839E1
2.483123303E1	5.611926317E-1	4.754434586E0	-3.090925217E0	5.698544033E0
2.484958501E1	2.088300228E0	2.038488388E-1	-2.347940207E0	3.148868909E0
2.486792422E1	1.072910070E0	-3.647902012E0	-8.128722906E-1	3.888326950E0
2.488625063E1	4.838335514E-2	-8.770249367E0	1.452037096E0	8.889770899E0
2.490460261E1	-7.717220187E-1	-1.416068077E1	2.136823177E0	1.434177284E1
2.492294178E1	-2.017570496E0	-1.805689240E1	7.517862320E-2	1.816941401E1
2.494126818E1	-3.974405766E0	-1.928733826E1	-4.695703983E0	2.024467718E1
2.495962016E1	-3.757610321E0	-1.834102249E1	-6.288715363E0	1.974995398E1
2.497795938E1	-2.104902506E0	-1.630338287E1	-5.392155170E0	1.730046950E1
2.499628579E1	-1.196364045E0	-1.151316547E1	-4.153308868E0	1.229773315E1
2.501463777E1	-1.971532822E0	-6.169129372E0	-3.685234547E0	7.451580539E0
2.503297698E1	-1.719306946E0	-2.300567627E0	-2.146687031E0	3.585650985E0
2.505130339E1	-1.078522444E0	-4.973106384E-1	-8.928797245E-1	1.485854211E0
2.506965537E1	8.637925982E-1	-5.336397171E0	-2.335787058E0	5.888902580E0
2.508799454E1	2.050313950E0	-8.705017090E0	-2.126327515E0	9.192517529E0
2.510632100E1	1.420750856E0	-1.120507812E1	-2.173541546E0	1.150202554E1
2.512467297E1	-8.073123693E-1	-1.268342590E1	-3.150626659E0	1.309379602E1
2.514301214E1	-2.427726030E0	-1.205109882E1	-4.350361347E0	1.304026382E1
2.516133855E1	-2.191323757E0	-1.113560295E1	-2.295410872E0	1.157896645E1
2.517969053E1	-1.471335530E0	-1.094397068E1	5.912203789E-1	1.105824869E1
2.519802975E1	-1.781584978E0	-9.909057617E0	2.784221172E-1	1.007179164E1
2.521635615E1	-1.402626514E0	-6.501358032E0	-1.378821254E0	6.792360816E0
2.523470813E1	1.412702799E-1	1.506232262E0	-2.088496923E0	2.578858724E0
2.525304730E1	3.897578955E0	2.148169518E1	2.426221848E0	2.196681365E1
2.527137376E1	4.370751858E0	4.771197510E1	6.899141312E0	4.840593136E1
2.528972574E1	-9.407933235E0	1.232292747E1	-4.899024963E-1	1.551140721E1
2.530806490E1	-8.588274956E0	-6.020572186E0	-3.044722080E-1	1.049278130E1
2.532639136E1	1.464873672E0	-1.766692162E0	4.270251274E0	4.847896658E0
2.534474329E1	1.232854843E0	5.434768677E0	1.279493523E1	1.395589514E1
2.536308251E1	3.633820534E0	1.304716778E1	7.067239285E0	1.527675063E1
2.538140891E1	3.611069202E0	1.521309090E1	5.366528511E0	1.653110957E1
2.539976089E1	3.051340580E-1	1.058953285E1	3.238142014E0	1.107776496E1
2.541810011E1	-2.503855944E0	9.560210228E0	3.719774723E0	1.055952831E1
2.543642652E1	-3.206786633E0	9.413627625E0	5.037496567E0	1.114792524E1
2.545477850E1	-2.606973171E0	1.103941536E1	5.054031372E0	1.241806079E1
2.547311766E1	-1.470836401E0	1.293697929E1	4.147753716E0	1.366501569E1
2.549144412E1	4.504829049E-1	1.414424515E1	2.868631363E0	1.443923999E1
2.550979610E1	3.775557518E0	1.141166973E1	-1.242345214E0	1.208405819E1
2.552813527E1	5.113008976E0	6.514067650E0	-3.640946150E0	9.046127735E0
2.554646167E1	3.419447660E0	3.525222778E0	-3.991572142E0	6.328701771E0
2.556481365E1	-1.121849194E-1	2.370805740E-1	-2.181999683E0	2.197706821E0
2.558315287E1	-2.373971462E0	-3.326263428E0	-1.959643841E0	4.532104685E0
2.560147928E1	-2.650982141E0	-7.243325233E0	-2.539999485E0	8.120656632E0
2.561983126E1	-2.577982426E0	-1.121348000E1	-2.640534639E0	1.180510695E1
2.563817047E1	-2.806578159E0	-1.497795582E1	-2.090898514E0	1.538141405E1
2.565649688E1	-3.201588392E0	-1.654434204E1	-2.130559206E0	1.698542623E1
2.567484886E1	-1.874792099E0	-1.687068558E1	-8.363834620E-1	1.699512914E1
2.569318803E1	1.580693007E0	-1.542616749E1	-6.331163645E-1	1.551986050E1
2.571151449E1	2.360957146E0	-1.322532082E1	-1.937048435E-1	1.343580109E1
2.572986646E1	4.335022867E-1	-1.102843475E1	-5.774843693E-1	1.105204893E1
2.574820563E1	-1.326354027E0	-8.031955719E0	-4.576998711E0	9.339188662E0
2.576653204E1	-1.444386244E0	-4.947757721E0	-6.069531441E0	7.962774014E0
2.578488402E1	-9.584833384E-1	-2.796523571E0	-4.073742867E0	5.033350309E0
2.580322324E1	3.452195227E-1	-4.639819145E0	-3.029277802E0	5.551902576E0
2.582154964E1	1.094237089E0	-7.615534782E0	-2.372704983E0	8.051301371E0
2.583990162E1	9.396581650E-1	-1.062066746E1	-2.152791977E0	1.087731805E1
2.585824084E1	1.143194735E-1	-1.258837509E1	-1.394519210E0	1.266589674E1
2.587656724E1	-8.174012303E-1	-1.289234924E1	-3.548078537E-1	1.292310730E1
2.589491922E1	-2.413532257E0	-1.011854839E1	-7.091045380E-1	1.042655210E1
2.591325844E1	-3.141252995E0	-4.926065445E0	-3.865677118E0	7.005501461E0
2.593158485E1	-2.462751865E0	2.473558426E0	-6.262451172E0	7.169514120E0
2.594993683E1	-2.959941626E-1	2.070760918E1	1.186471224E0	2.074368348E1
2.596827605E1	8.823534012E0	4.239352417E1	5.049459934E0	4.359544345E1
2.598660245E1	1.176475286E0	1.256697464E1	5.061469555E0	1.359894922E1
2.600495443E1	-7.191339016E0	-6.721765041E0	4.315795898E0	1.074818945E1
2.602329360E1	-7.063018799E0	7.612705231E-1	7.046516418E0	1.000595628E1
2.604162006E1	-3.516887426E0	1.370703602E1	6.162401199E0	1.543458850E1
2.605997204E1	8.775738478E-1	2.025341225E1	4.986055374E0	2.087657998E1
2.607831120E1	2.969496727E0	1.867178345E1	5.027243614E0	1.956339915E1
2.609663766E1	3.969813585E-1	1.348365688E1	3.470409632E0	1.392875946E1
2.611498964E1	-3.397464514E0	1.464963818E1	2.516474962E0	1.524753456E1
2.613332881E1	-3.879939079E0	1.256469631E1	1.677023888E0	1.325661834E1
2.615165527E1	-1.944665432E0	1.000866508E1	-7.405776978E-1	1.022269807E1
2.617000724E1	2.089154720E0	7.233315468E0	-1.658605218E0	7.709500073E0
2.618834646E1	4.884830475E0	3.480961800E0	-2.655780792E0	6.559865504E0
2.620667287E1	4.085484505E0	2.832307816E-1	-2.549586058E0	4.824084616E0
2.622502485E1	1.102055192E0	-3.010206223E0	-1.633460760E0	3.597785597E0
2.624336407E1	-1.519777477E-1	-7.204842091E0	-4.137719870E-1	7.218313795E0
2.626169047E1	-6.442974210E-1	-1.140855312E1	4.121055603E-1	1.143416086E1
2.628004245E1	-2.049021244E0	-1.432353020E1	-4.125019312E-1	1.447522584E1
2.629838167E1	-4.592881203E0	-1.591029167E1	-1.712720871E0	1.664828374E1
2.631670808E1	-6.057676315E0	-1.646329880E1	-4.893898010E0	1.821224553E1
2.633506006E1	-3.899900913E0	-1.533195019E1	-6.502012730E0	1.710421273E1
2.635339928E1	-9.086892009E-1	-1.199853134E1	-4.946518898E0	1.300993926E1
2.637172568E1	8.985090852E-1	-9.884031296E0	-2.808866501E0	1.031460732E1
2.639007771E1	2.046083450E0	-8.613747597E0	-1.432654738E0	8.968589897E0
2.640841688E1	2.114351749E0	-7.336201668E0	2.418131828E-1	7.638639398E0
2.642674334E1	1.123892307E0	-6.396603584E0	4.550933838E-3	6.494589444E0
2.644509532E1	5.635327101E-1	-6.462534428E0	-2.333578348E0	6.894019745E0
2.646343454E1	-4.355442822E-1	-7.310727596E0	-1.888545275E0	7.563269139E0
2.648176094E1	-1.709177852E0	-8.522429466E0	-1.214339137E0	8.776543310E0
2.650011292E1	-2.948037386E0	-9.236645699E0	-1.176918030E0	9.766866654E0
2.651845214E1	-3.646777153E0	-8.014297485E0	-2.563276291E0	9.170514333E0
2.653677855E1	-1.632330418E0	-4.485445023E0	-5.684295654E0	7.422596360E0
2.655513058E1	1.346447468E0	5.461950302E-1	-5.719267845E0	5.900955387E0
2.657346974E1	2.430789232E0	1.428088856E1	7.477955818E-1	1.450557522E1
2.659179620E1	1.098334026E1	3.264033890E1	1.386739492E0	3.446662927E1
2.661014818E1	5.528332233E0	1.039248371E1	4.816890717E0	1.271882900E1
2.662848740E1	-3.896966219E0	-3.021898746E0	7.655445099E0	9.106264734E0
2.664681381E1	-6.005643368E0	1.544134140E0	-6.439688206E-1	6.234324209E0
2.666516584E1	-8.280246735E0	6.400997162E0	-1.677865028E0	1.059955101E1
2.668350501E1	-4.069838524E0	7.089785576E0	1.716783047E0	8.353202329E0
2.670183146E1	2.287467718E0	1.138974762E1	5.925959587E0	1.304131345E1
2.672018344E1	5.460469246E0	9.632255554E0	1.066279030E1	1.537179783E1
2.673852266E1	1.391490221E0	5.232425690E0	6.978596687E0	8.832629017E0
2.675684912E1	-1.524736524E0	5.608068466E0	5.186247826E0	7.789250278E0
2.677520110E1	-1.491623402E0	8.056656837E0	3.759549141E0	9.014924820E0
2.679354032E1	-1.962451816E0	1.245086670E1	4.397811890E0	1.334975835E1
2.681186672E1	-2.221631289E0	1.394751549E1	4.873968124E0	1.494069607E1
2.683021876E1	-2.178339481E0	1.247939014E1	3.845282078E0	1.323882682E1
2.684855792E1	-6.517504454E-1	9.760894775E0	3.564519882E-1	9.789121691E0
2.686688438E1	2.380073071E0	8.065391541E0	-4.913166046E0	9.739326934E0
2.688523636E1	2.907947063E0	5.698348045E0	-4.568875313E0	7.861421512E0
2.690357558E1	1.630572557E0	1.665635109E0	-3.015244007E0	3.811142034E0
2.692190204E1	7.671947479E-1	-2.760665417E0	-1.593282938E0	3.278477062E0
2.694025402E1	2.274736166E-1	-6.940590858E0	-3.772321939E-1	6.954556049E0
2.695859324E1	-3.931955397E-1	-1.130090523E1	3.237299919E-1	1.131237653E1
2.697691964E1	-1.544798136E0	-1.481771088E1	-2.328914404E-1	1.489983877E1
2.699527167E1	-3.548400164E0	-1.724326324E1	-1.236972809E0	1.764798495E1
2.701361089E1	-5.199997425E0	-1.780424881E1	-4.301828861E0	1.904040389E1
2.703193730E1	-3.621878624E0	-1.485854721E1	-6.983510971E0	1.681261001E1
2.705028933E1	-1.029069543E0	-1.112752438E1	-5.662148476E0	1.252759786E1
2.706862855E1	4.248386025E-1	-9.251392365E0	-4.089292526E0	1.012378693E1
2.708695495E1	1.354310393E0	-7.455347061E0	-2.466442108E0	7.968669470E0
2.710530699E1	1.511628866E0	-5.872331619E0	1.869847775E-1	6.066651777E0
2.712364620E1	9.900399446E-1	-5.045609951E0	-2.438256502E0	5.690646153E0
2.714198542E1	6.307108998E-1	-5.763421059E0	-3.467532635E0	6.755634767E0
2.716032464E1	2.022033930E-1	-7.232339859E0	-2.003598213E0	7.507465075E0
2.717866386E1	-6.420136094E-1	-9.276724815E0	-9.889110327E-1	9.351350159E0
2.719699027E1	-2.261950493E0	-1.166251469E1	-6.826496124E-2	1.188003910E1
2.721534230E1	-2.767798424E0	-1.204981136E1	-5.673670769E-1	1.237661373E1
2.723368152E1	-2.391667604E0	-1.040852833E1	-2.297551155E0	1.092411448E1
2.725200797E1	3.140556216E-1	-5.582541943E0	-5.203197002E0	7.637844233E0
2.727035995E1	2.200869083E0	2.989092827E0	-3.693582773E0	5.236511659E0
2.728869917E1	3.610449314E0	2.934864235E1	4.171570778E0	2.986268834E1
2.730702563E1	2.419709682E0	3.535223770E1	5.499633312E0	3.585919229E1
2.732537761E1	-8.050357819E0	5.226278305E-1	-9.945302010E-1	8.128375679E0
2.734371683E1	-5.243192196E0	-3.492292404E0	4.237570763E0	7.592376216E0
2.736204329E1	9.755091667E-1	5.891492844E0	1.006494045E1	1.170317617E1
2.738039527E1	2.344691277E0	1.537518311E1	8.832127571E0	1.788575719E1
2.739873454E1	1.164739728E0	1.731966209E1	4.974219799E0	1.805741333E1
2.741706094E1	-1.735092998E0	1.141420269E1	1.464859962E0	1.163788578E1
2.743541297E1	-3.194895983E0	1.059534073E1	3.456176519E0	1.159369491E1
2.745375219E1	-2.761089325E0	1.144979572E1	6.637666702E0	1.351961744E1
2.747207865E1	-3.076788425E0	1.279074955E1	7.159216881E0	1.497745931E1
2.749043063E1	-2.944342136E0	1.279553127E1	4.878100395E0	1.400680673E1
2.750876985E1	-1.271474123E0	1.011801720E1	1.001581430E0	1.024666208E1
2.752709631E1	2.349393129E0	7.705252647E0	-2.833925486E0	8.539420361E0
2.754544834E1	4.770274639E0	3.794071198E0	-4.581311226E0	7.624887470E0
2.756378756E1	2.145951748E0	1.541720390E0	-3.323126316E0	4.245607045E0
2.758211402E1	7.599472404E-1	-2.286518574E0	-2.532315493E0	3.495469747E0
2.760046600E1	8.162113428E-1	-6.835207939E0	-1.800948262E0	7.115453827E0
2.761880521E1	5.964627862E-1	-1.096226025E1	-1.248902321E0	1.104928389E1
2.763713167E1	-6.338595152E-1	-1.361167908E1	-1.914727688E0	1.376029677E1
2.765548370E1	-1.809172511E0	-1.579521656E1	-2.830036163E0	1.614840785E1
2.767382292E1	-1.739687443E0	-1.666184235E1	-4.107110977E0	1.724853221E1
2.769214938E1	-5.011487007E-2	-1.506018353E1	-4.912830830E0	1.584132400E1
2.771050136E1	1.041634798E0	-1.185986137E1	-4.966729164E0	1.289998889E1
2.772884063E1	1.256440878E0	-9.488135338E0	-3.855619907E0	1.031838945E1
2.774716709E1	1.402168155E0	-7.666427135E0	-2.603581429E0	8.216983438E0
2.776551907E1	1.269267321E0	-6.492335320E0	-1.054536581E0	6.698768904E0
2.778385829E1	7.305152416E-1	-6.355809212E0	-1.315633774E0	6.531527806E0
2.780219756E1	4.528822899E-1	-6.933533669E0	-1.937937140E0	7.213500666E0
2.782053678E1	-1.486757100E-1	-8.007067680E0	-1.436943173E0	8.136340884E0
2.783887600E1	-1.703686118E0	-9.571722031E0	-8.544543982E-1	9.759636332E0
2.785720245E1	-3.176055908E0	-1.108739662E1	-1.493318439E0	1.162960425E1
2.787555449E1	-2.982659101E0	-1.164070797E1	-2.774553537E0	1.233290252E1
2.789389370E1	-3.163020372E0	-1.044847488E1	-2.556417942E0	1.121207376E1
2.791222016E1	-1.887837529E0	-6.687309742E0	-5.169206142E0	8.660527366E0
2.793057219E1	3.463009596E-1	7.381820679E-2	-6.152029991E0	6.162211169E0
2.794891141E1	2.207006454E0	2.044463539E1	1.011999607E0	2.058830097E1
2.796723787E1	1.227091599E1	4.894608688E1	5.140970230E0	5.072203047E1
2.798558990E1	2.044858694E0	6.090275764E0	4.275511265E0	7.717052711E0
2.800392912E1	-6.607437134E0	-1.111621952E1	6.643590927E0	1.453842709E1
2.802225558E1	-4.944284439E0	-3.639306068E0	8.523560524E0	1.050436011E1
2.804060761E1	-1.872813582E0	1.344062042E1	9.946588516E0	1.682534788E1
2.805894683E1	-2.168710232E0	2.748398209E1	7.973934174E0	2.869941117E1
2.807727329E1	-2.399516821E0	1.721327019E1	2.473982334E0	1.755491214E1
2.809562532E1	-2.215167046E0	9.437580109E0	2.094843388E0	9.917824972E0
2.811396454E1	-2.626280308E0	1.237849426E1	6.453069687E0	1.420445623E1
2.813229105E1	-3.003484488E0	1.450136375E1	7.658390999E0	1.667217510E1
2.815064303E1	-1.289230585E0	1.285979462E1	3.732634544E0	1.345247166E1
2.816898230E1	1.838316917E0	1.259273338E1	-1.888989568E0	1.286563736E1
2.818730876E1	4.673304558E0	1.080287838E1	-7.120875835E0	1.375677395E1
2.820566079E1	4.742288113E0	5.727292061E0	-3.059153557E0	8.040496961E0
2.822400001E1	2.338114738E0	-3.936290741E-2	-5.943571329E-1	2.412797209E0
2.824232646E1	8.069763184E-1	-5.100790024E0	-2.802634239E-2	5.164305870E0
2.826067850E1	-3.768215179E-1	-9.695053101E0	6.516194344E-2	9.702592188E0
2.827901771E1	-6.644433737E-1	-1.381975842E1	-5.577131510E-1	1.384695821E1
2.829734422E1	-1.825015068E0	-1.674943352E1	-1.515034676E0	1.691654614E1
2.831569620E1	-5.044938564E0	-1.830476761E1	-3.386186361E0	1.928683956E1
2.833403547E1	-4.317480087E0	-1.697938347E1	-5.290881634E0	1.830118919E1
2.835236193E1	-4.909197688E-1	-1.361765671E1	-4.449023247E0	1.433441259E1
2.837071396E1	-3.179259896E-1	-1.154505825E1	-1.859004498E0	1.169809150E1
2.838905324E1	-4.710661769E-1	-9.835583687E0	1.362442970E-1	9.847800379E0
2.840737969E1	-2.684206367E-1	-7.504853249E0	5.897800922E-1	7.532775881E0
2.842573172E1	-3.683307171E-1	-4.949470997E0	-1.853773355E0	5.298056844E0
2.844407094E1	-4.914756715E-1	-4.896882057E0	-4.154218197E0	6.440382834E0
2.846241021E1	-1.984438300E-1	-5.904518127E0	-2.765491486E0	6.523086496E0
2.848074943E1	-3.885667026E-1	-7.389088631E0	-2.601289511E0	7.843234154E0
2.849908870E1	-8.171855211E-1	-9.590855598E0	-3.077725410E0	1.010567647E1
2.851741516E1	-1.100038171E0	-1.182106876E1	-3.082274914E0	1.226573150E1
2.853576719E1	-1.019676924E0	-1.331817913E1	-1.306223035E0	1.342087385E1
2.855410646E1	-3.954545557E-1	-1.267694092E1	6.812319756E-1	1.270138939E1
2.857243292E1	-4.478297234E-1	-9.362465858E0	2.517075539E-1	9.376549211E0
2.859078495E1	-7.144539356E-1	-5.131489754E0	-3.857171059E0	6.459133076E0
2.860912422E1	-4.215066433E0	4.913641930E0	-6.652428627E0	9.282535682E0
2.862745068E1	-4.369144440E0	3.222818375E1	3.211684465E0	3.268118982E1
2.864580271E1	4.163935184E0	4.161681747E1	1.843786716E0	4.186522904E1
2.866414198E1	1.069754720E0	4.301311493E0	3.621298552E0	5.723587941E0
2.868246844E1	-4.332328796E0	-7.742318630E0	9.719331741E0	1.315971049E1
2.870082047E1	-1.597434878E0	2.262167931E0	-5.477523804E-2	2.769874052E0
2.871915975E1	-9.718207121E-1	1.235186100E1	3.888753414E0	1.298596584E1
2.873748626E1	3.328851938E0	1.482954597E1	4.503321648E0	1.585170637E1
2.875583829E1	3.725320101E0	2.002035522E1	7.955068588E0	2.186265650E1
2.877417751E1	2.400509119E-1	1.539865398E1	8.379953384E0	1.753282030E1
2.879250402E1	-1.846315622E0	9.896325111E0	4.227517605E0	1.091870126E1
2.881085605E1	-1.074340105E0	8.057383537E0	4.218556404E0	9.158157799E0
2.882919532E1	-2.016463280E-1	9.765749931E0	4.198529243E0	1.063194153E1
2.884752178E1	2.256842256E-1	1.366527367E1	1.396575451E0	1.373830633E1
2.886587386E1	1.514567375E0	1.314554787E1	-6.080912590E0	1.456285827E1
2.888421308E1	2.527742386E0	7.484253883E0	-4.332709789E0	9.009767582E0
2.890253959E1	1.576575398E0	3.118256569E0	-2.218972445E0	4.139197111E0
2.892089162E1	5.845814347E-1	-2.091732979E0	-4.484564066E-1	2.217700489E0
2.893923089E1	-3.279470205E-1	-6.988239288E0	8.497885466E-1	7.047352565E0
2.895755740E1	-1.102880359E0	-1.154253769E1	2.918331623E-1	1.159877959E1
2.897590943E1	-2.357814789E0	-1.549045753E1	-5.745052099E-1	1.567940118E1
2.899424870E1	-4.737950325E0	-1.777165985E1	-1.518586874E0	1.845497692E1
2.901257516E1	-6.220994473E0	-1.916177368E1	-2.886622429E0	2.035207439E1
2.903092719E1	-3.625358105E0	-1.614396286E1	-4.589810848E0	1.717082182E1
2.904926646E1	-3.199961782E-1	-1.265477848E1	-4.392157555E0	1.339913669E1
2.906759297E1	9.730298519E-1	-1.037008381E1	-3.185400009E0	1.089184091E1
2.908594501E1	8.640227318E-1	-7.828634262E0	-2.489839554E0	8.260348098E0
2.910428428E1	7.132377028E-1	-6.143771172E0	-1.047082305E0	6.273038624E0
2.912261079E1	5.918071270E-1	-5.833409309E0	-1.984973669E0	6.190235885E0
2.914096282E1	3.737808466E-1	-6.159992218E0	-2.792975903E0	6.773915459E0
2.915930209E1	8.924491704E-2	-7.294560909E0	-1.884131551E0	7.534489712E0
2.917762860E1	-1.991350204E-1	-8.854773521E0	-7.931810617E-1	8.892457763E0
2.919598063E1	-2.465337366E-1	-1.018688679E1	-4.280455112E-1	1.019885603E1
2.921431990E1	4.961064458E-1	-1.075221443E1	-2.337689638E0	1.101458259E1
2.923264641E1	7.469569445E-1	-7.820452690E0	-5.138015747E0	9.387045902E0
2.925099844E1	7.491649985E-1	-3.837475300E0	-5.991075993E0	7.154051749E0
2.926933771E1	8.885837793E-1	2.392354965E0	-4.232192039E0	4.942104094E0
2.928766422E1	3.393368244E0	1.586288834E1	-3.494606018E-1	1.622554459E1
2.930601626E1	9.345025063E0	3.083046722E1	8.884265423E-1	3.222788396E1
2.932435553E1	1.091197729E-1	9.256864548E0	5.431615353E0	1.073330768E1
2.934268204E1	-7.001841068E0	-1.169796467E0	7.802089214E0	1.054830784E1
2.936103412E1	-6.983147621E0	1.435761452E0	2.329576969E0	7.500179365E0
2.937937339E1	-1.926418304E0	8.002944946E0	4.924232483E0	9.591990453E0
2.939769985E1	2.560983658E0	1.410776711E1	6.471263409E0	1.573101968E1
2.941605193E1	6.719762683E-1	1.202877808E1	6.147069454E0	1.352514388E1
2.943439120E1	-2.432439804E0	8.794367790E0	2.409985065E0	9.437462384E0
2.945271771E1	-2.615348339E0	8.238752365E0	4.746320248E0	9.861269866E0
2.947106974E1	-8.211195469E-1	8.879334450E0	6.308726311E0	1.092322504E1
2.948940902E1	3.575375676E-1	9.843610764E0	5.879801273E0	1.147155478E1
2.950774834E1	4.698391557E-1	1.041685295E1	5.093872070E0	1.160513278E1
2.952608761E1	-2.495856285E-1	1.050112343E1	3.641597986E0	1.111742426E1
2.954442688E1	-9.948520660E-1	1.060894871E1	1.491793156E0	1.075941309E1
2.956275339E1	-1.205136061E0	1.018095398E1	-3.232044697E0	1.074943207E1
2.958110542E1	6.978346109E-1	7.139369011E0	-5.029019356E0	8.760627757E0
2.959944469E1	2.414819002E0	2.243093491E0	-3.396235228E0	4.732571494E0
2.961777120E1	1.943931580E0	-2.166231155E0	-2.280124664E0	3.697349847E0
2.963612329E1	2.887208760E-1	-5.921443939E0	-9.052808285E-1	5.997198633E0
2.965446256E1	-9.556266069E-1	-9.829298019E0	3.225090504E-1	9.880907542E0
2.967278907E1	-2.098732948E0	-1.375125885E1	1.743030548E-2	1.391050336E1
2.969114110E1	-3.656059027E0	-1.723712921E1	-1.958646536E0	1.772911976E1
2.970948042E1	-4.447248459E0	-1.811468124E1	-3.928353310E0	1.906178520E1
2.972780688E1	-1.565771580E0	-1.476532364E1	-4.166995049E0	1.542174668E1
2.974615896E1	1.532395601E0	-1.300754547E1	-2.934777260E0	1.342227228E1
2.976449824E1	1.644134760E0	-1.159742165E1	-1.893218517E0	1.186539693E1
2.978282475E1	-1.343622804E-1	-9.430635452E0	-1.405892849E0	9.535799545E0
2.980117683E1	-2.281715155E0	-7.020962715E0	-2.666265249E0	7.849147207E0
2.981951610E1	-2.984359264E0	-5.541865826E0	-4.112823009E0	7.518908841E0
2.983784261E1	-1.573129773E0	-5.750508308E0	-3.203834057E0	6.768133846E0
2.985619464E1	-1.077096760E-1	-6.341693878E0	-2.457985401E0	6.802233078E0
2.987453396E1	7.102522850E-1	-8.033172607E0	-2.276299715E0	8.379609826E0
2.989286042E1	1.053037167E0	-9.926357269E0	-1.970616817E0	1.017471309E1
2.991121251E1	5.083909631E-1	-1.003566360E1	-2.235327482E0	1.029415826E1
2.992955178E1	-4.145873487E-1	-7.286971092E0	-2.885301828E0	7.848362696E0
2.994787829E1	6.061844826E-1	-2.556843758E0	-4.563854694E0	5.266277556E0
2.996623037E1	1.392323852E0	5.498515129E0	-2.720732927E0	6.290836351E0
2.998456964E1	3.653774738E0	2.432424164E1	1.590977669E0	2.464852959E1
3.000289615E1	6.194146633E0	2.549557877E1	3.111771107E0	2.642111104E1
3.002124824E1	-3.918404579E0	2.641541481E0	2.133401871E0	5.184885667E0
3.003958751E1	-7.570098877E0	-2.157882214E0	-6.054329872E-1	7.894897197E0
3.005791402E1	-4.895972252E0	1.545127869E0	3.480847359E0	6.202762510E0
3.007626610E1	1.686295986E0	3.933634758E0	5.928597927E0	7.312000406E0
3.009460537E1	3.400274277E0	1.230854225E1	4.497086525E0	1.353831100E1
3.011293188E1	6.709027290E-2	1.006580448E1	-1.229564667E0	1.014084564E1
3.013128396E1	-8.834673166E-1	4.117763519E0	-2.913149834E0	5.120833219E0
3.014962324E1	1.506682873E0	2.007361412E0	1.334957123E0	2.842833734E0
3.016794974E1	3.143816948E0	2.915348053E0	2.398676872E0	4.912890189E0
3.018630183E1	2.693238497E0	3.909963608E0	1.945552826E0	5.130938005E0
3.020464110E1	-5.043190718E-1	3.738949776E0	1.019112110E0	3.908026694E0
3.022296761E1	-2.492037058E0	3.893325806E0	2.739195824E-1	4.630687472E0
3.024131969E1	-2.062543869E0	4.151980400E0	-6.659007072E-1	4.683636643E0
3.025965896E1	-6.781803370E-1	2.897816658E0	8.276367188E-2	2.977267166E0
3.027798547E1	5.279219747E-1	1.516755104E0	-5.518102646E-2	1.606951338E0
3.029633756E1	1.072623372E0	-2.308177948E-1	5.784673691E-1	1.240331508E0
3.031467683E1	4.366102815E-1	-1.122359276E0	4.851312637E-1	1.298334019E0
3.033301615E1	-3.770086765E-1	-2.959051132E-1	-1.224384308E-1	4.946580107E-1
3.035135542E1	-9.497590065E-1	3.838090897E-1	1.227478981E-1	1.031706661E0
3.036969469E1	-1.195047379E0	-2.388191223E-1	-7.040596008E-2	1.220708732E0
3.038803402E1	-9.058915377E-1	-1.174252033E0	-2.949709892E-1	1.512122746E0
3.040637329E1	-4.489504099E-1	-1.808715343E0	-2.332153320E-1	1.878136591E0
3.042471261E1	-7.631003857E-2	-1.571601391E0	-6.088850498E-1	1.687155938E0
3.044305188E1	-5.962491035E-3	-7.245683670E-1	-8.805727959E-1	1.140369817E0
3.046139115E1	-3.434181213E-2	-1.051471710E0	-7.267150879E-1	1.278626973E0
3.047973047E1	-1.201708317E-1	-1.399083614E0	-4.933388233E-1	1.488374678E0
