Time (s),Linear Acceleration x (m/s^2),Linear Acceleration y (m/s^2),Linear Acceleration z (m/s^2),Absolute acceleration (m/s^2)
37.76759854,-1.059900808,35.91215778,9.179453806,37.08192064
37.77757954,0.6394625404,34.96017728,10.70708216,36.56862749
37.78755954,3.066623412,33.4838138,11.78172556,35.62834578
37.79754054,4.727537005,31.06901665,11.16584067,33.35130281
37.80752154,5.204305521,28.13147374,7.951618626,29.69331321
37.81750254,4.822002575,24.62147672,3.996415193,25.40551434
37.82748354,3.638332876,20.73927168,0.6529468044,21.06611487
37.83746454,1.853071226,16.83148274,-1.865988017,17.03568594
37.84744554,0.01169881672,12.73185366,-3.668803886,13.24991911
37.85742654,-1.269132018,9.048797187,-4.915523819,10.37563497
37.86740754,-1.95672394,5.753086005,-5.592294592,8.258360973
37.87738854,-2.51330695,2.478885561,-5.707712197,6.711152209
37.88736954,-3.077993323,-0.6071427137,-4.884604327,5.805344486
37.89735054,-3.417296722,-3.223888662,-3.62660687,5.934951759
37.90733154,-3.427024443,-5.425868216,-2.639003375,6.93893949
37.91731254,-2.84049024,-7.173997416,-1.608314087,7.881706537
37.92729254,-1.839926685,-8.818734394,-0.4404134524,9.01938859
37.93727354,-0.5187561288,-10.27941915,0.6032151389,10.31016171
37.94725454,1.155363401,-11.40694008,1.120025972,11.51987868
37.95723554,2.912754225,-12.22631509,1.015946703,12.60948316
37.96721654,3.939507751,-12.69308779,0.6432848652,13.30593907
37.97719754,3.789189578,-13.35420206,0.7530336678,13.90178873
37.98717854,3.021699839,-14.22188793,1.123423204,14.58268994
37.99715954,2.19806572,-14.52021521,1.045443567,14.72280867
38.00714054,1.402795859,-14.59403046,0.6123111407,14.67407531
38.01712154,0.6636750564,-14.52568587,-0.1003838289,14.54118604
38.02710254,0.4402427137,-14.25048783,-0.6176577616,14.27065935
38.03708354,0.6177288052,-13.81519771,-0.9322976053,13.86039161
38.04706454,0.639719087,-13.33262349,-0.8849888067,13.37726784
38.05704554,0.3756348545,-13.18432758,-0.4644711634,13.19785319
38.06702554,0.1699674493,-13.03310221,0.1067958856,13.03464796
38.07700654,-0.03909068316,-12.82193002,0.6026491284,12.83614442
38.08698754,-0.2483339531,-12.77512774,0.8521952824,12.80592813
38.09696854,-0.4965051343,-12.77680004,1.132774145,12.83652265
38.10694954,-0.3224064079,-12.797912,1.452329085,12.8840893
38.11693054,-0.3182551771,-12.73599817,1.682159743,12.85054851
38.12691154,-0.05417489156,-12.67401067,1.574358283,12.77153418
38.13689254,0.3635287792,-12.50125351,1.267405043,12.57059299
38.14687354,0.7919009873,-12.34805997,0.8207876945,12.40062033
38.15685454,0.947224085,-12.17330189,0.7152689139,12.23103111
38.16683554,1.074043761,-12.06098156,0.7407849935,12.13134818
38.17681654,1.291401431,-11.92744753,0.7602795374,12.0212207
38.18679754,1.501505046,-11.95308172,0.7582167128,12.07085633
38.19677854,1.326909525,-12.09788685,0.7184894872,12.19162754
38.20675854,1.194935383,-12.11114248,0.8892037721,12.20239018
38.21673954,1.442964769,-11.99482148,1.535005206,12.17842891
38.22672054,1.738927729,-12.00382854,2.076105373,12.30552651
38.23670125,1.724097436,-12.03006499,2.093535923,12.33198558
38.24668225,1.497976543,-11.80799359,1.642907385,12.0154813
38.25666325,1.341542182,-11.49780698,1.037090235,11.62217093
38.26664425,1.472673595,-11.10999976,0.4692484117,11.21699854
38.27662525,1.531158615,-10.39253938,-0.08657153606,10.50508525
38.28660625,1.264819696,-9.300992276,-0.7891589355,9.419713266
38.29658725,0.7198302537,-8.023790224,-1.325751484,8.164372734
38.30656825,0.2609126296,-6.555633311,-1.044956494,6.643518464
38.31654925,0.1393035175,-4.831944888,-0.08548865,4.834708386
38.32653025,0.392842662,-3.170265017,0.9407625463,3.330156123
38.33651125,0.8497319967,-1.461071257,2.00620074,2.623283266
38.34649125,0.8211970726,0.4759171611,2.77436174,2.932225237
38.35647225,0.2302596979,2.18790706,2.714264642,3.493878844
38.36645325,-0.2389303147,4.151449438,1.944999104,4.590712542
38.37643425,0.0799312187,6.631620802,0.4553623708,6.647716777
38.38641525,0.6804747648,9.10212204,-1.223861485,9.209207809
38.39639625,0.1731211451,11.53315808,-2.434913914,11.78866031
38.40637725,-1.095923457,13.9622201,-3.415811237,14.41569994
38.41635825,-2.68577116,16.6745996,-3.952806074,17.34590195
38.42633925,-3.890886984,18.97157185,-4.651655349,19.91726481
38.43632025,-4.465513039,21.04152361,-5.101766993,22.10688918
38.44630125,-4.165524563,23.49307169,-3.471405394,24.11071686
38.45628225,-3.675142268,25.6762349,0.0769082813,25.93803432
38.46626325,-3.544583006,27.00360431,4.583732922,27.61827876
38.47624425,-2.682819486,28.46386924,9.099900098,30.00329239
38.48622425,-0.5693314013,29.89206569,12.96206673,32.58642207
38.49620525,1.927762097,30.56547782,15.79192731,34.45794059
38.50618625,3.686884646,30.29329929,16.81918721,34.84482973
38.51616725,3.636968721,28.76260816,15.18203699,32.72628022
38.52614825,2.242360133,26.99658063,10.96367085,29.22405898
38.53612925,1.271275315,25.27684201,6.084722536,26.02995834
38.54611025,0.3071525571,23.68457502,2.037545617,23.77404106
38.55609125,-0.4326214528,21.72486666,0.8563475364,21.74604156
38.56607225,-0.3439267927,18.98820601,3.421657283,19.29709801
38.57605325,0.7761865953,15.75608037,6.446613729,17.04157748
38.58603425,0.7141330191,12.19341866,7.280246002,14.21940316
38.59601525,-0.8966839689,8.261294768,5.685577562,10.06870526
38.60599625,-2.151794802,4.061830918,3.531281175,5.796433215
38.61597725,-2.175399866,-0.07566530943,1.121477836,2.448632751
38.62595725,-1.954202182,-3.414551162,-2.03796647,4.430730543
38.63593825,-2.086627145,-6.011082702,-5.170274726,8.198711413
38.64591925,-1.971347242,-8.100048441,-6.999604794,10.88537836
38.65590025,-1.154289486,-9.884339161,-7.341343558,12.36640086
38.66588125,0.1546674787,-11.37794257,-6.823836322,13.26824183
38.67586225,1.191188048,-12.92266351,-5.62078515,14.14239679
38.68584325,1.614811806,-14.27208043,-4.135667803,14.94669345
38.69582425,2.338974115,-15.32501311,-2.61983094,15.72228803
38.70580525,3.303940553,-15.89762509,-1.120138166,16.27590908
38.71578625,4.232563183,-16.05303005,-0.05996911682,16.60174573
38.72576725,4.58748508,-16.05845744,-0.08066000104,16.70106526
38.73574825,4.318037782,-16.01016061,-1.145697661,16.62177235
38.74572925,3.951272934,-15.76730001,-2.177524159,16.4000585
38.75571025,3.507696723,-15.46571934,-2.676238444,16.08274427
38.76569025,3.085894958,-15.37570029,-2.507822261,15.88156414
38.77567125,2.747342926,-15.24448643,-1.804413913,15.59481225
38.78565225,2.315066897,-15.17290364,-0.945309999,15.37758598
38.79563325,1.902655322,-15.05367541,-0.4392995578,15.1797966
38.80561425,1.850469507,-14.88288058,-0.245715241,14.99949158
38.81559525,1.908665383,-14.5079805,-0.3016485365,14.6361024
38.82557625,1.954952088,-14.00083745,-0.6785618482,14.1529408
38.83555725,1.843340874,-13.47103761,-1.175297948,13.64727391
38.84553825,1.978657723,-12.94236629,-1.453449411,13.17317148
38.85551925,2.227635382,-12.25504012,-1.398621824,12.53413383
38.86550025,2.111893256,-11.75349052,-1.317036794,12.01412579
38.87548125,1.899237917,-11.3746003,-1.113157833,11.58567033
38.88546225,1.925905898,-10.92623815,-0.7735363448,11.12160744
38.89544325,1.88028943,-10.6162445,-0.5970662069,10.79799165
38.90542325,1.599091567,-10.2966965,-0.6315859023,10.43925062
38.91540425,1.719426095,-10.01919934,-0.4394229341,10.17515966
38.92538525,2.283414018,-9.602061902,0.4519394108,9.880173155
38.93536625,2.462519204,-9.1981456,1.525785316,9.643542095
38.94534725,2.12908524,-9.025790733,2.176683768,9.525536968
38.95532825,1.475039817,-8.861676931,2.786763392,9.405908286
38.96530925,0.6773937938,-8.453253011,3.107140231,9.031648201
38.97529025,-0.3947423858,-7.812865952,3.300315864,8.490511218
38.98527125,-1.713840542,-6.800338116,3.339687506,7.767583958
38.99525225,-2.856594642,-4.933310464,3.357900413,6.616130309
39.00523325,-3.170224379,-3.381514394,3.631432577,5.888315953
39.01521425,-1.965707895,-2.742769818,4.036241164,5.260991973
39.02519525,-0.05773628443,-1.685695555,4.094821494,4.428596397
39.03517525,2.057643082,0.01385614693,2.83057921,3.499466489
39.04515625,3.645853565,2.352574008,0.6259888013,4.383915448
39.05513725,3.879393404,5.505275744,-1.390794742,6.876922583
39.06511825,3.025485034,7.7579758,-2.585469192,8.719197162
39.07509925,1.289465126,8.681148825,-2.748833381,9.196801085
39.08508025,-0.9673768061,9.563252762,-2.641026512,9.968281813
39.09506125,-2.84080102,11.34330367,-2.564373608,11.97149533
39.10504225,-3.369916734,13.5078587,-2.254686356,14.10326898
39.11502325,-3.180420169,16.13944137,-1.905032215,16.55976413
39.12500425,-3.355370615,18.73465904,-1.601779239,19.10004341
39.13498525,-4.047764564,20.6253609,-1.276189899,21.05750629
39.14496625,-5.004069375,21.97898665,-1.365646452,22.58277119
39.15494725,-5.700006151,23.24499304,-0.87689933,23.9497124
39.16492825,-5.624850134,24.28674701,1.242123144,24.96052662
39.17490825,-4.540778106,25.28341661,4.772176988,26.12744715
39.18488925,-3.009649605,25.70201177,8.921543064,27.37234609
39.19487025,-1.339751472,25.25316546,11.86851227,27.93526236
39.20485125,-0.009762730524,24.57368392,12.24373745,27.45496573
39.21483225,0.8953399133,23.67519608,10.01468763,25.7217906
39.22481325,1.495153215,22.43282648,7.012439432,23.55082788
39.23479692,2.128289434,20.72653177,4.693120586,21.35753066
39.24477792,2.595749182,18.42347724,3.016374195,18.84836706
39.25475892,2.484161503,15.69409053,1.811807717,15.99244144
39.26473992,2.166054845,12.58043533,0.9685585284,12.80223623
39.27472092,1.774919095,9.505595707,0.2912553665,9.674270889
39.28470192,1.370869769,6.305138007,-0.2952884835,6.459198441
39.29468292,1.144742226,3.145670459,-0.7962002988,3.440873772
39.30466392,0.9858104458,0.2716090143,-1.072952378,1.4821675
39.31464492,0.6330389354,-2.390299074,-1.130073974,2.718701003
39.32462492,0.07666240588,-5.186277385,-1.269147074,5.339858101
39.33460592,-0.1246108899,-7.715536709,-1.418478384,7.845834277
39.34458692,0.2608350809,-9.473906137,-1.27172862,9.562438294
39.35456792,0.7943427846,-10.91848942,-1.385532247,11.03467676
39.36454892,0.8576023489,-12.09462176,-1.68227084,12.24113526
39.37452992,-0.1829884677,-13.41477103,-1.231127309,13.47238809
39.38451092,-1.203222934,-14.78614658,-0.4017677423,14.84046136
39.39449192,-1.082109848,-15.28791487,0.02061114281,15.32617785
39.40447292,0.03849339008,-15.35910823,0.3317371023,15.36273858
39.41445392,1.151211366,-15.05495946,0.3989410521,15.10417975
39.42443492,1.86853755,-14.86942263,-0.3246492536,14.98988189
39.43441592,2.600958174,-14.61547103,-1.423642645,14.91320674
39.44439692,2.932117279,-14.33677402,-2.392388284,14.82780911
39.45437692,2.85379558,-14.02399009,-3.148351407,14.65361948
39.46435792,2.875401042,-13.79049907,-3.394608064,14.49031262
39.47433892,2.875673522,-13.5820587,-3.247501473,14.25791298
39.48431992,2.714958122,-13.44346448,-2.879894042,14.01397605
39.49430092,2.471678867,-13.46197209,-2.57963484,13.92797203
39.50428192,2.022783736,-13.37152034,-2.530560329,13.7583773
39.51426292,1.413854114,-13.24079297,-2.873521162,13.62258073
39.52424392,1.017273217,-12.93302244,-3.439992982,13.42130642
39.53422492,0.8626004027,-12.39247425,-4.014899411,13.05514897
39.54420592,0.9773878241,-11.88141123,-4.068941132,12.59680522
39.55418692,1.230305044,-11.45582047,-3.524316849,12.04866309
39.56416792,1.506637001,-10.97423443,-2.778259494,11.42026717
39.57414892,1.896759867,-10.38578702,-2.198502945,10.78404772
39.58412992,2.169897343,-9.835444744,-1.608476786,10.19958947
39.59410992,2.131148137,-9.367853433,-1.041735994,9.663523385
39.60409092,1.794701688,-8.875207973,-0.5356622565,9.070678296
39.61407192,1.380339043,-8.303303504,-0.2571967971,8.421183714
39.62405292,1.042167664,-7.758031349,-0.3019724357,7.833540145
39.63403392,0.7432658941,-7.145530831,0.07884210169,7.184516068
39.64401492,0.4542873602,-6.312698457,1.098984474,6.423729889
39.65399592,-0.06762092941,-5.439048425,1.726633519,5.706932948
39.66397692,-0.5070462023,-4.56189708,1.655586195,4.879443254
39.67395792,-0.6218249991,-3.457282029,1.354900293,3.764999358
39.68393892,-0.1505567033,-1.770407091,1.432960622,2.282626718
39.69391992,0.7852781385,0.1798890048,1.554226758,1.750612071
39.70390092,0.7954700547,2.246619537,0.9920868471,2.581532154
39.71388192,-0.2662351307,4.495787875,-0.32906434,4.515669729
39.72386292,-1.448538627,6.761056522,-0.486991349,6.931616696
39.73384292,-1.777168519,8.773707325,1.032425911,9.011224747
39.74382392,-2.029603052,11.09296799,1.963160555,11.44671249
39.75380492,-1.787734438,13.71107985,1.570768823,13.91607056
39.76378592,-0.9663091046,16.60802203,0.5777794585,16.64614004
39.77376692,0.590982508,19.52219479,-0.9422567292,19.55385378
39.78374792,2.537082021,22.23119343,-2.15197972,22.47874025
39.79372892,3.576243339,24.8538708,-2.737407337,25.25861851
39.80370992,3.356827742,26.41441313,-3.52065883,26.85860295
39.81369092,2.007220495,26.67068256,-4.027273874,27.04760946
39.82367192,-0.6779592195,25.78548194,-3.421940873,26.02038406
39.83365292,-3.444907275,24.47347434,-1.12997881,24.74055748
39.84363392,-4.691309703,22.97930491,2.983321347,23.64227247
39.85361492,-4.435799536,21.32643504,6.882659311,22.84434609
39.86359592,-3.339897129,19.47210053,8.229694076,21.40199702
39.87357592,-1.731615201,17.77652259,6.562792642,19.02822887
39.88355692,-0.1793949151,16.34256897,3.721942213,16.76199859
39.89353792,0.8461202446,14.06384939,0.96705901,14.12242834
39.90351892,1.920554234,10.80085981,-1.432920422,11.06346971
39.91349992,2.613443149,6.950072445,-3.055514287,8.029306299
39.92348092,2.668533276,2.320347664,-4.225412039,5.509917424
39.93346192,1.605467224,-2.153804344,-4.605094847,5.331350365
39.94344292,-0.637150332,-5.619753116,-2.708259552,6.270746003
39.95342392,-2.820869908,-8.594925783,0.7980920193,9.081134683
39.96340492,-4.354006929,-10.30156606,3.467328131,11.7090565
39.97338592,-4.948230804,-10.6345229,4.931055778,12.7237328
39.98336692,-3.688205825,-10.29408631,4.890233442,11.97854157
39.99334792,-1.187426681,-9.136430578,3.369208344,9.809990351
40.00332892,1.094997843,-7.865841726,0.9446095026,7.997673002
40.01330892,3.255803935,-6.761513189,-2.59510248,7.940584157
40.02328992,4.764270968,-5.72515561,-5.92657114,9.518399555
40.03327092,5.201571947,-5.094365587,-7.79995647,10.66996872
40.04325192,4.659042428,-5.168515298,-8.113930315,10.68906413
40.05323292,3.369659749,-5.727479879,-6.963652019,9.625543207
40.06321392,1.857946049,-6.651537588,-4.872730971,8.452125349
40.07319492,0.7076218522,-7.497813295,-3.064259675,8.130659275
40.08317592,-0.1339222153,-8.1500205,-2.204553206,8.443981534
40.09315692,-0.6944635704,-8.63006521,-2.439276522,8.995019463
40.10313792,-0.8782378308,-8.886084378,-3.518673993,9.597648875
40.11311892,-0.9200693232,-9.350353301,-4.5981849,10.4603508
40.12309992,-0.3988520283,-9.624229281,-5.239091191,10.9650786
40.13308092,0.03123195224,-9.895706148,-4.928915112,11.05532359
40.14306192,0.3337171888,-10.35598727,-4.280300729,11.21065626
40.15304192,0.2665967079,-11.00457446,-3.706894111,11.61519681
40.16302292,0.1113023347,-11.36795085,-3.342957854,11.84981274
40.17300392,0.2128262975,-11.73575475,-3.023958618,12.12095542
40.18298492,0.2879756632,-11.81363381,-2.485365445,12.07567453
40.19296592,0.361691511,-11.82323377,-2.018907909,11.99981944
40.20294692,0.5216578826,-11.97920123,-1.719675479,12.1132437
40.21292792,0.5817602429,-11.76734608,-1.46487604,11.87243617
40.22290892,0.6266121876,-11.77946619,-1.432155021,11.88274104
40.23288992,0.7642193913,-11.4402774,-1.422253931,11.5536481
40.24286854,1.010414945,-11.07910892,-1.337107946,11.20515286
40.25284954,1.234685193,-10.44541459,-1.366533767,10.60653327
40.26283054,1.248182029,-9.834853005,-1.394149874,10.01129092
40.27281154,1.413220275,-9.075865703,-1.282534421,9.274342259
40.28279154,1.689854679,-7.923727992,-0.5728476244,8.12214433
40.29277254,1.956097996,-6.611064915,0.3615888923,6.90385727
40.30275354,2.145629936,-5.260461595,1.445380254,5.862193113
40.31273454,2.065126056,-3.800091419,2.915537792,5.215918043
40.32271554,2.229093093,-1.860913804,3.897576199,4.860345299
40.33269654,2.182445468,0.6179232252,3.793369752,4.419790879
40.34267754,1.227810329,3.243835854,2.641011894,4.359464769
40.35265854,-0.6324123332,5.579725417,1.035850625,5.710189805
40.36263954,-2.002596224,7.432775885,1.053014834,7.769516667
40.37262054,-2.551491899,9.24092383,2.831056635,9.995982483
40.38260154,-2.693648821,11.03828951,3.886193132,12.00841689
40.39258254,-2.499916534,12.47353537,3.583010322,13.21652868
40.40256354,-2.409991912,14.31367518,1.816453622,14.62835815
40.41254454,-2.248666647,16.61384352,-0.2780257487,16.76763539
40.42252454,-2.046939754,18.89215497,-1.808537662,19.08859058
40.43250554,-2.196403649,20.18840082,-2.291212158,20.43637369
40.44248654,-2.769585442,20.63546957,-1.49377795,20.87401687
40.45246754,-3.905620506,20.0237479,0.870004001,20.41962925
40.46244854,-4.748837827,19.01118791,4.016936581,20.00281245
40.47242954,-4.030390732,18.51250695,7.35477052,20.32362203
40.48241054,-2.034591896,18.03125304,9.706644616,20.57874146
40.49239154,0.4768015525,17.4555432,10.12770495,20.18647408
40.50237254,2.460402804,16.66431084,8.263785682,18.76280873
40.51235354,3.112045753,15.20349511,5.110979281,16.33870256
40.52233454,3.071749958,13.20216276,2.080130304,13.71348575
40.53231554,2.809912519,10.98046055,-0.2697086692,11.33749818
40.54229654,2.204237164,8.616450554,-1.609845473,9.038444781
40.55227754,1.293343584,6.204633726,-2.222948838,6.716525801
40.56225754,0.3384719253,3.723121596,-2.157648888,4.316439087
40.57223854,-0.4819228363,1.505917062,-1.646919159,2.28306341
40.58221954,-1.092095285,-0.4940768588,-0.9291412783,1.516603959
40.59220054,-1.451675366,-2.132369621,-0.1487698308,2.583891258
40.60218154,-1.409944373,-3.413699808,0.3873777446,3.713670829
40.61216254,-0.7928900439,-4.405229707,0.6197949189,4.518724282
40.62214354,0.1434015021,-4.884120762,0.6017585975,4.923140565
40.63212454,0.8039772418,-5.425506274,0.06551220417,5.485142621
40.64210554,1.261646705,-5.937904213,-0.7586908489,6.117685073
40.65208654,1.560828557,-6.278247832,-1.520384243,6.645611324
40.66206754,1.845156873,-6.608460565,-2.118048036,7.180702083
40.67204854,1.763965506,-6.92490369,-2.760311465,7.660625615
40.68202954,1.549726448,-7.383653426,-3.259505515,8.218537959
40.69201054,1.110869671,-7.637422001,-3.578111233,8.506886989
40.70199054,0.6759113784,-8.23795853,-3.617399844,9.022549449
40.71197154,0.3616271916,-8.581184242,-3.406195491,9.239570604
40.72195254,0.00150752183,-9.187202536,-3.117226386,9.701638678
40.73193354,-0.1313869357,-9.640836543,-3.036195379,10.10848526
40.74191454,0.1781238766,-9.785380883,-3.039596704,10.24814887
40.75189554,0.7306630978,-9.927610896,-2.700723952,10.31432191
40.76187654,0.8866396219,-10.0393699,-2.375645952,10.35464975
40.77185754,0.8706556731,-10.35680588,-2.282947118,10.64111446
40.78183854,0.786490851,-10.56795936,-2.289858527,10.84176116
40.79181954,0.7549853222,-10.78782052,-2.179761888,11.03170142
40.80180054,0.3752101274,-10.86037745,-2.315260586,11.11076111
40.81178154,-0.1050143851,-10.94916391,-2.705106733,11.27886611
40.82176254,-0.3885069881,-10.94687999,-3.092964242,11.38207129
40.83174354,-0.4791496481,-10.8496326,-3.308051146,11.3528549
40.84172354,-0.3310086854,-10.58292239,-3.32493235,11.09788215
40.85170454,0.02758657873,-10.27684287,-3.424356358,10.83238094
40.86168554,0.2735117348,-9.630434346,-3.620103889,10.29199818
40.87166654,0.3017160719,-8.742215976,-3.70479496,9.499625175
40.88164754,0.01407351717,-7.786020216,-3.513926346,8.5422472
40.89162854,-0.09107867952,-6.874791298,-2.463276711,7.303340528
40.90160954,0.004340168908,-5.536634361,-0.9631086311,5.619779099
40.91159054,0.1726902784,-4.140558999,0.3508232912,4.158981575
40.92157154,0.4412862224,-2.919761528,1.53364719,3.327433638
40.93155254,0.4689208214,-1.283949739,2.503137472,2.852036268
40.94153354,0.4189689352,0.2528540701,2.242501343,2.295273932
40.95151454,-0.2487344874,1.809154251,0.496614258,1.892494034
40.96149554,-1.487216789,3.39769247,-0.9867129636,3.837933086
40.97147654,-2.608045,4.903518316,-1.299945382,5.704055451
40.98145654,-3.590135447,6.487690419,-0.3182405591,7.421622232
40.99143754,-4.40834218,7.820969024,1.684820226,9.134530992
41.00141854,-4.518290884,9.772780133,3.642966502,11.36632698
41.01139954,-4.157128254,12.84922716,5.3180555,14.51434009
41.02138054,-3.338427723,16.26423967,5.668909489,17.54443292
41.03136154,-2.357468128,19.77893668,4.509839027,20.42309086
41.04134254,-1.088480975,22.42180097,2.608857178,22.59929391
41.05132354,0.2003963596,24.29776317,1.473441334,24.34322253
41.06130454,1.286939713,25.20476455,2.208949142,25.33408427
41.07128554,1.0793466,24.83455861,4.662258105,25.29144008
41.08126654,-0.9809153031,22.71893776,7.221656901,23.85926772
41.09124754,-3.544227787,20.18212792,10.74658011,23.13803842
41.10122854,-4.64544619,18.03376617,14.7749363,23.77174026
41.11120954,-4.294754169,16.20510561,15.68136933,22.95551579
41.12118954,-3.530753464,14.5297567,11.49368937,18.85961148
41.13117054,-2.567173839,13.31924857,4.645942619,14.33797569
41.14115154,-1.322364777,12.41465508,-1.79720722,12.61357456
41.15113254,-0.2509135254,11.301606,-6.756093405,13.16943636
41.16111354,-0.1126759918,9.40402197,-8.971262523,12.9973796
41.17109454,-0.5478301661,6.774550141,-8.484982926,10.87150324
41.18107554,-1.259745044,3.897013696,-6.503460944,7.685614977
41.19105654,-2.09727551,1.185300195,-4.516280319,5.118621791
41.20103754,-3.376957074,-1.642717935,-2.67371157,4.609890981
41.21101854,-4.769231746,-4.441090096,-0.7518402511,6.560039363
41.22099954,-5.548467371,-7.15399643,0.9483581525,9.102996115
41.23098054,-5.586247401,-9.186330131,2.396841231,11.01542869
41.240962,-3.805173234,-10.53042258,2.869151245,11.55859731
41.250942,-1.368314536,-11.21423808,1.85723532,11.44904989
41.260923,0.3574686518,-11.22647279,0.2167615467,11.2342539
41.270904,1.108418664,-11.44076038,-1.265899969,11.56382691
41.280885,1.050092981,-11.73906427,-2.243173188,11.99750604
41.290866,0.8227985519,-12.24025017,-2.717094694,12.56516317
41.300847,1.012919307,-12.08008558,-2.871928965,12.4580275
41.310828,1.601846336,-11.77510183,-3.092555521,12.27936621
41.320809,2.333951796,-11.3564599,-3.519601654,12.11627452
41.33079,2.752577938,-10.92288184,-3.890629706,11.91734167
41.340771,2.991816182,-10.56185136,-4.617694135,11.90910439
41.350752,2.851331271,-10.26955841,-5.034649143,11.78734965
41.360733,2.338829251,-10.14603598,-5.133119763,11.6086643
41.370714,1.622675141,-10.25601041,-4.898796104,11.48115967
41.380695,0.9449904487,-10.37033634,-4.458247581,11.32752639
41.390675,0.2815780784,-10.69280326,-3.92587146,11.39420004
41.400656,-0.2812493187,-10.8915127,-3.419111406,11.41903993
41.410637,-0.6195184187,-11.0632922,-2.970549566,11.47189619
41.420618,-0.72369826,-11.14341309,-2.573075726,11.45949882
41.430599,-0.7836287852,-11.05942369,-2.090557936,11.28252449
41.44058,-0.8776473351,-11.10500039,-1.56168722,11.24856282
41.450561,-0.9469706082,-11.02337677,-1.286864576,11.13856405
41.460542,-1.02501515,-10.79826832,-1.080985867,10.9005406
41.470523,-0.975284142,-10.47331282,-0.8620111495,10.55388667
41.480504,-0.7409834334,-9.838681762,-0.5446465033,9.881566428
41.490485,-0.7142821231,-9.076666771,0.01817416951,9.104746505
41.500466,-0.7555861236,-8.148207863,0.4642326701,8.196323184
41.510447,-0.7595499511,-7.10990667,0.7621749124,7.190869181
41.520428,-0.6275660147,-5.614940273,1.310806586,5.799966145
41.530408,-0.5003655392,-3.781727069,2.230091505,4.418725316
41.540389,-0.4381045331,-2.181804321,3.003818761,3.738332894
41.55037,-0.6364932512,-0.5778762299,3.382996663,3.490520164
41.560351,-1.020294693,1.040272874,3.618720145,3.901064522
41.570332,-0.8806855483,2.514089892,3.560383059,4.446637218
41.580313,-0.7264865778,4.335336185,2.653695089,5.134687937
41.590294,-1.091570351,6.641140069,1.081980479,6.816667001
41.600275,-1.365655515,9.168772697,-0.02823912799,9.269962524
41.610256,-1.275012855,11.35929463,0.2650560397,11.43369962
41.620237,-0.5849475601,13.1317155,1.577512709,13.2390582
41.630218,0.03375685304,14.40219384,2.463993287,14.61148829
41.640199,0.3555630443,15.33070596,1.737380263,15.43293428
41.65018,0.3227026425,16.43970759,-0.5106031367,16.45080054
41.660161,0.09537035309,17.65098521,-3.106012011,17.92243524
41.670141,-0.3950056567,18.45415875,-5.248143851,19.18997183
41.680122,-1.635165817,18.42947649,-5.285628011,19.24206939
41.690103,-2.922469958,17.62563285,-2.329749109,18.01753299
41.700084,-3.750935631,16.51771062,1.61457821,17.01502703
41.710065,-3.741152655,15.50291114,4.708735575,16.62854978
41.720046,-2.309188253,14.39450242,6.834294067,16.10098213
41.730027,-0.04707666412,13.18946144,7.343134561,15.09588468
41.740008,1.614899514,11.63340508,5.832636205,13.1134915
41.749989,1.806132702,9.654535984,2.705882951,10.1879332
41.75997,1.558189416,7.535691558,-0.5890049431,7.71761157
41.769951,1.239172054,5.238122892,-2.865596138,6.097960318
41.779932,0.8198199072,3.033855323,-3.38590653,4.61960451
41.789913,0.3647305282,0.6988247162,-2.588835727,2.706188235
41.799894,-0.04565725252,-1.538315899,-1.513094519,2.158229695
41.809874,-0.7643081959,-3.609535339,-0.7622444943,3.767483119
41.819855,-1.520734491,-5.276833799,-0.1491244644,5.493618702
41.829836,-1.659271549,-6.620292406,0.220055868,6.82860734
41.839817,-0.8821160696,-7.808151927,0.2196389616,7.860890951
41.849798,0.1904244814,-8.290403377,-0.2050574675,8.295124966
41.859779,1.001711072,-8.55241828,-1.456441724,8.733184184
41.86976,1.552853539,-8.873825691,-2.91237474,9.467738016
41.879741,1.937385444,-9.074611475,-4.118996222,10.15224929
41.889722,2.297583284,-9.196320684,-4.792603651,10.62168785
41.899703,2.39898102,-9.199876376,-4.794746071,10.64811839
41.909684,2.494198834,-9.118538682,-4.4702984,10.45716708
41.919665,2.506424192,-9.184372483,-3.673913183,10.20453322
41.929646,2.36876027,-9.108576196,-2.84654971,9.832600409
41.939626,1.904646591,-9.205426553,-2.344659802,9.68839441
41.949607,1.265666081,-9.428398427,-1.764817884,9.675287577
41.959588,0.5940860273,-9.432858683,-0.90683532,9.494951893
41.969569,0.1461948632,-9.678494366,-0.3885562509,9.687393978
41.97955,-0.08317385609,-9.663930121,0.03975448832,9.664369803
41.989531,-0.3068159768,-9.672668785,0.5537095414,9.693361219
41.999512,-0.2098493887,-9.716405373,0.9415354751,9.764172223
42.009493,0.1478798937,-9.642179648,1.316073757,9.732705018
42.019474,0.4685812443,-9.710320176,1.738063657,9.875765873
42.029455,0.3736402962,-9.816745348,2.39006577,10.11041595
42.039436,0.1753454259,-10.07415615,2.973588656,10.50531283
42.049417,-0.1134251663,-10.30316586,3.228653558,10.79779125
42.059398,-0.5515960653,-10.38607938,3.185466608,10.87759627
42.069379,-1.051888076,-10.00258156,2.941307348,10.47899782
42.079359,-1.076602064,-9.340597807,2.854097296,9.826073008
42.08934,-0.9632593431,-8.038377857,2.299787099,8.416199133
42.099321,-0.9551694278,-6.183413011,0.6956385684,6.29530445
42.109302,-1.256372662,-4.221917742,-0.6050786831,4.446254818
42.119283,-1.80023213,-2.530286679,-0.8720982543,3.225483184
42.129264,-2.725432532,-1.291650522,-0.3221208445,3.033167551
42.139245,-4.015119851,-0.5986630815,0.8025975913,4.13808504
42.149226,-5.240919031,1.061588899,1.762709232,5.630394934
42.159207,-5.267694016,3.390544834,2.285842075,6.668543207
42.169188,-4.617068483,7.302525063,2.637861999,9.03341074
42.179169,-3.180076645,12.21972411,2.094225894,12.7992315
42.18915,-2.168371805,16.99821843,0.9125797708,17.16024673
42.199131,-2.154046272,20.85851512,-0.6351707572,20.97906123
42.209112,-2.375074386,23.98385656,-0.2372800112,24.10233714
42.219092,-2.360464533,25.92148116,2.851047388,26.18441234
42.229073,-2.666221579,26.52787952,6.328579495,27.40233654
42.23905304,-3.217469589,26.20968106,9.377785513,28.0221761
42.24903404,-2.545927396,25.24134473,11.49282866,27.85125384
42.25901504,0.07519402385,24.04979678,14.0906998,27.87375469
42.26899604,3.600950457,23.15687316,16.05146066,28.40522853
42.27897704,5.999902825,22.28064451,14.44645376,27.22362907
42.28895804,5.948644964,20.80672282,9.400531182,23.59398394
42.29893904,4.440246051,18.68146575,3.515318568,19.52102488
42.30892004,2.252333436,15.91122689,-0.7160541219,16.08579748
42.31890104,1.427825158,13.78380752,-2.57026877,14.0939106
42.32888204,1.278548959,10.54178606,-4.167536883,11.40755471
42.33886304,0.3646516639,7.337102573,-4.350490998,8.537729026
42.34884304,-0.2586153316,4.546613043,-3.169083295,5.548122293
42.35882404,-1.329416519,1.711485869,-1.281448008,2.517665815
42.36880504,-1.989848709,-1.684736611,-0.5439005448,2.663393163
42.37878604,-2.056951649,-5.010500143,-0.6960443652,5.460827732
42.38876704,-2.236809663,-7.486251596,-0.6488321918,7.840169873
42.39874804,-2.060940619,-9.883567328,-0.7019564849,10.12052974
42.40872904,-1.903297639,-12.03483281,-1.119509955,12.23572823
42.41871004,-1.658004603,-13.48541592,-1.739346097,13.6978373
42.42869104,-1.292252786,-14.35638325,-2.215306528,14.58366347
42.43867204,-0.7934490377,-14.86353331,-2.440716691,15.08347711
42.44865304,-0.2930022222,-15.2109889,-2.347935997,15.39392208
42.45863404,0.1721209423,-15.44685154,-2.057484915,15.58422576
42.46861504,0.4758220708,-15.48317328,-1.817350878,15.59672484
42.47859604,0.5564143172,-15.50905422,-1.713903108,15.61338604
42.48857604,0.4291999546,-15.36218503,-1.667947501,15.45842781
42.49855704,0.5293831509,-15.17759194,-1.954671568,15.31209602
42.50853804,0.6413372308,-14.90384752,-2.433060932,15.11475339
42.51851904,0.4297407855,-14.85702653,-2.844145335,15.1329137
42.52850004,-0.2580308294,-14.83602801,-3.036816938,15.14584313
42.53848104,-0.8621924132,-14.71615073,-2.691765141,14.98512822
42.54846204,-1.372971551,-14.59567704,-2.225940274,14.82813708
42.55844304,-2.074196257,-14.35785558,-1.825429391,14.62130293
42.56842404,-2.498343925,-14.11431203,-1.299876385,14.39253991
42.57840504,-2.282550969,-13.70078407,-0.6484159432,13.90474618
42.58838604,-1.675258275,-12.88289426,-0.1508868152,12.99223697
42.59836704,-0.8248070705,-12.03276524,-0.1295041323,12.06169628
42.60834804,0.21929573,-11.11612297,0.04625615358,11.11838208
42.61832904,0.8545302218,-9.848244299,0.3427994496,9.891190481
42.62830904,0.9720975557,-8.859294775,0.4021760973,8.921537042
42.63829004,0.5808366752,-7.649859028,0.3248446968,7.678752404
42.64827104,-0.3044762135,-6.252922956,0.3044029771,6.267727853
42.65825204,-0.9909811386,-5.196217067,0.4599079232,5.309823982
42.66823304,-1.247605786,-3.873341829,0.8517041163,4.157486863
42.67821404,-0.6148806265,-2.413421888,1.471257545,2.892625479
42.68819504,0.5318396392,-1.082711381,2.139903612,2.456482201
42.69817604,1.136209603,1.334504766,2.696893734,3.216381669
42.70815704,1.155012202,4.285730161,2.517397077,5.102825124
42.71813804,0.1608987467,7.253501422,1.175002371,7.349816451
42.72811904,-0.9113794836,10.51542213,-0.167320561,10.55616935
42.73810004,-1.918871697,14.16296671,-0.08124940038,14.29259585
42.74808104,-2.200332393,16.64382337,0.5709197974,16.79834124
42.75806204,-1.05120154,18.61236921,2.557601655,18.81665853
42.76804204,-1.183658443,20.50343009,3.481322564,20.83053766
42.77802304,-2.326990101,21.63092529,2.494366649,21.89825739
42.78800404,-3.579580638,23.17403825,0.9744127607,23.46910579
42.79798504,-3.908680646,24.19711387,0.4322276428,24.51458596
42.80796604,-3.557705619,24.30229593,2.247609178,24.66395353
42.81794704,-2.551497746,23.56313303,4.922566205,24.20667339
42.82792804,-1.446308353,22.1659198,7.14840006,23.33494015
42.83790904,-0.4301935427,20.09852911,8.756607728,21.92747404
42.84789004,0.3990139961,17.40529924,9.61335346,19.88769013
42.85787104,0.5128135304,14.38804241,8.331177181,16.63391882
42.86785204,0.06583877116,11.25378046,5.201847936,12.39802933
42.87783304,-0.5256765278,7.847959771,1.921616965,8.096877185
42.88781404,-0.8919066475,4.47583776,-0.8783590874,4.647594626
42.89779404,-1.1638931,1.316412311,-2.582855195,3.123896521
42.90777504,-1.459409917,-1.613367251,-2.84306974,3.579926918
42.91775604,-1.855402364,-4.458296698,-2.091224226,5.262332766
42.92773704,-2.20645589,-7.102865453,-1.03587226,7.509472456
42.93771804,-2.181426152,-9.33736722,-0.1760266265,9.590413548
42.94769904,-1.844733242,-11.25116909,0.05145520538,11.40151281
42.95768004,-1.290997827,-12.61028888,-0.2775483236,12.6792387
42.96766104,-0.3853508073,-13.36268169,-0.8954344189,13.39819242
42.97764204,0.7784285639,-13.73032187,-1.552315011,13.83970272
42.98762304,1.874275715,-13.92242278,-2.18239986,14.21652682
42.99760404,2.640967455,-13.82999818,-2.960081296,14.38769058
43.00758504,3.096660851,-13.60090661,-3.718235078,14.43603967
43.01756604,3.295514131,-13.53556983,-4.086896762,14.5180849
43.02754704,3.223671438,-13.42184967,-3.970410871,14.36322626
43.03752704,2.731791379,-13.30431245,-3.64612663,14.06277544
43.04750804,2.399932362,-13.24963396,-3.387240572,13.88473529
43.05748904,2.023274025,-13.1260402,-3.267283773,13.67705057
43.06747004,1.624050991,-12.80571569,-3.419107897,13.35343382
43.07745104,1.373854481,-12.48939536,-3.680410609,13.09266569
43.08743204,1.332329309,-12.2630625,-3.791003677,12.90463142
43.09741304,1.714826968,-11.64947323,-3.766264692,12.36266993
43.10739404,1.845958965,-10.87545274,-3.698284086,11.63444635
43.11737504,1.507589366,-10.15077924,-3.75061228,10.92603484
43.12735604,1.125889925,-9.324239636,-3.583874541,10.05252355
43.13733704,0.8856646717,-8.270630432,-3.157265195,8.896968763
43.14731804,0.5680988082,-7.36428277,-2.331776047,7.745487493
43.15729904,0.2100611492,-6.625894623,-0.973335996,6.700297621
43.16728004,-0.008097516596,-5.619015782,0.5665431565,5.647510521
43.17726004,0.04488768585,-4.388919484,1.897452177,4.781731267
43.18724104,0.05810977533,-3.380013998,2.675669803,4.311273625
43.19722204,-0.397175193,-2.006542218,3.658033023,4.19108165
43.20720304,-0.7117540795,-0.3450424415,4.346600261,4.417983927
43.21718404,-0.7398019304,1.357698916,4.374235664,4.639460193
43.22716504,-1.100260629,3.34303913,4.017441781,5.341003888
43.23714654,-1.583155565,5.370305049,3.673198069,6.696188611
43.24712754,-2.281854858,8.158775536,3.115034557,9.026401283
43.25710854,-3.147602963,11.79729903,2.378046818,12.43940415
43.26708954,-3.409842984,15.86956781,1.775827753,16.32861831
43.27707054,-4.079349176,20.16267775,1.715335968,20.64260257
43.28705154,-4.562223355,22.95645867,3.036045983,23.60149258
43.29703254,-4.828510818,24.19554214,3.794562292,24.96272179
43.30701354,-4.040380992,24.98846435,3.009959215,25.49132957
43.31699354,-2.859485798,26.18939356,2.556490976,26.46878615
43.32697454,-2.356903433,26.02633109,2.064027803,26.21421589
43.33695554,-2.261170041,24.76801496,2.449712048,24.99136939
43.34693654,-2.370911315,22.74330194,3.695512798,23.16324283
43.35691754,-2.143191794,20.24535738,3.94899252,20.73794368
43.36689854,-1.124567358,17.78030691,2.439818266,17.98212109
43.37687954,0.7171175842,15.60514269,-0.1062845466,15.62197274
43.38686054,1.868834003,13.40294094,-3.119825765,13.88757283
43.39684154,2.281127757,10.53229719,-6.013073094,12.34057843
43.40682254,2.367501657,7.345089285,-8.0026081,11.11742493
43.41680354,2.432459545,4.30136737,-8.604396518,9.922412012
43.42678454,2.263617393,1.213697197,-8.10070099,8.498139862
43.43676554,1.837805315,-1.905053265,-6.250912099,6.788273594
43.44674554,1.043955378,-4.814304423,-3.487976988,6.036004753
43.45672654,0.06075140119,-7.293225067,-0.5563602304,7.31466741
43.46670754,-0.8526930267,-9.538755852,2.338575774,9.858188741
43.47668854,-1.468584637,-11.23141135,4.597813017,12.22461559
43.48666954,-1.538371156,-12.37937415,5.44896998,13.6127427
43.49665054,-0.5124974153,-12.76186625,4.896675904,13.67864462
43.50663154,1.423860454,-12.39990021,3.777660331,13.04053762
43.51661254,2.8158261,-11.73040338,2.319732975,12.28464086
43.52659354,3.501809454,-11.29741238,0.5205517356,11.83913722
43.53657454,4.035230472,-10.98589144,-0.7128758678,11.72523295
43.54655554,3.945542078,-10.62606548,-1.187829846,11.39699564
43.55653654,3.210313767,-10.54253216,-1.326809099,11.10006852
43.56651754,2.231890108,-10.65187042,-1.341877374,10.96559673
43.57649854,1.20632532,-10.65782522,-1.23482538,10.79672417
43.58647854,0.4743930843,-10.81602281,-1.057001173,10.8778973
43.59645954,0.08588013936,-11.00720103,-1.057341628,11.05820154
43.60644054,-0.09730969179,-11.00159238,-0.9413448559,11.04222053
43.61642154,0.1252291964,-10.90797612,-0.8845999669,10.94450285
43.62640254,0.4480938067,-10.84469638,-1.222279887,10.92255446
43.63638354,0.4781134484,-10.94320443,-1.798045418,11.10023797
43.64636454,0.473182126,-11.0664497,-2.403854089,11.33440447
43.65634554,0.4477651566,-11.07006796,-2.758029297,11.41725115
43.66632654,0.3629185492,-11.02570396,-2.866612092,11.3980403
43.67630754,0.2296815544,-11.11659542,-2.609140475,11.42099214
43.68628854,0.1001332757,-11.20646713,-2.006504211,11.38512149
43.69626954,-0.06675152153,-11.2607901,-1.306486663,11.33652313
43.70625054,-0.150863134,-11.08312479,-0.7043234378,11.10650648
43.71623154,0.001760011911,-10.95532103,-0.4078380293,10.96290991
43.72621154,0.2252043414,-10.55576324,-0.3018215775,10.56247844
43.73619254,0.3566652444,-9.936709163,-0.3661584914,9.949847794
43.74617354,0.2831090257,-9.101968258,-0.6075543576,9.126614881
43.75615454,0.00149052836,-7.934278123,-0.9753233184,7.993999445
43.76613554,-0.6156137212,-6.175242112,-1.644291567,6.419991445
43.77611654,-0.9630855346,-4.242347329,-2.274843462,4.909170743
43.78609754,-1.260078481,-2.367267476,-2.116761648,3.41649425
43.79607854,-1.7227555,-0.3908793497,-1.428410026,2.271789687
43.80605954,-1.638176987,1.783137649,-0.9395753422,2.597307364
43.81604054,-1.446556129,4.611627649,-0.5108285469,4.860100823
43.82602154,-0.7041968456,7.550808365,0.09173813581,7.584129221
43.83600254,0.492687341,10.88930362,1.173901486,10.96347203
43.84598354,1.729786777,13.86528262,2.315359258,14.16330163
43.85596454,2.532827002,16.36460946,2.878871949,16.80784219
43.86594454,2.118254442,18.40287984,2.376744059,18.67623893
43.87592554,0.883822141,20.36687421,0.6713352013,20.39709287
43.88590654,-0.3594821405,22.37665345,-1.56320048,22.43406879
43.89588754,-1.316198595,24.30634454,-3.197070408,24.55100859
43.90586854,-0.7088997611,25.65263788,-2.631123083,25.79696063
43.91584954,0.2320973316,25.99481928,0.5527004582,26.00173025
43.92583054,0.03061521716,25.32407114,4.904745354,25.79469021
43.93581154,-1.762829685,23.95366154,9.460052914,25.81429974
43.94579254,-2.994003917,21.8751401,13.70567702,25.98713906
43.95577354,-2.553584325,19.89125233,16.40822268,25.91162835
43.96575454,-0.4409227449,17.81484174,16.84412675,24.52116647
43.97573554,2.368308573,15.82615575,14.20417087,21.39706899
43.98571654,3.954486564,13.75173437,8.44077973,16.61309498
43.99569654,4.599637641,11.17848703,2.235329441,12.29275951
44.00567754,3.662067309,8.085298839,-3.015886245,9.374346064
44.01565854,1.908628837,4.623899201,-6.51853682,8.216728676
44.02563954,0.6895223808,0.6308736384,-7.294674007,7.354298847
44.03562054,-0.3016595914,-3.095145838,-6.175205859,6.914050453
44.04560154,-1.219580081,-6.265391559,-3.286367331,7.179325678
44.05558254,-1.436801219,-9.366143707,-0.4299431357,9.48545712
44.06556354,-1.739318908,-11.61430106,1.563187616,11.84739528
44.07554454,-1.597002064,-12.92650747,1.985857692,13.17530424
44.08552554,-0.8770525271,-13.41817878,0.8487879637,13.47357354
44.09550654,0.4178002229,-13.23016858,-0.6611201155,13.25326366
44.10548754,2.113934812,-12.91354185,-1.488804016,13.16984514
44.11546854,3.368820381,-12.50972262,-1.858813484,13.08805938
44.12544954,3.821230273,-12.3801413,-2.136996084,13.13150607
44.13542954,3.407248867,-12.18993956,-2.359189109,12.87515998
44.14541054,2.381012234,-12.13733801,-2.591461419,12.63724121
44.15539154,1.239553,-12.24674877,-2.76760879,12.61661625
44.16537254,0.3301343805,-12.42384339,-2.629822662,12.70341846
44.17535354,-0.2654919496,-12.30984958,-2.247732847,12.51619693
44.18533454,-0.4840564853,-12.28258285,-2.181414312,12.48417881
44.19531554,-0.3560132799,-12.15620464,-2.488391964,12.41338597
44.20529654,-0.02187991552,-11.86626928,-2.957324041,12.22925144
44.21527754,0.2843471736,-11.5456489,-3.340165808,12.02246104
44.22525854,0.3655252379,-11.35459698,-3.626808599,11.92536045
44.23523954,0.384062081,-11.23859407,-3.854418485,11.88739005
44.24522067,0.3203546199,-10.97223468,-3.793471202,11.61391341
44.25520167,0.2782158563,-10.92741578,-3.638663828,11.52066378
44.26518267,0.2058389479,-10.68494344,-3.321845897,11.19129332
44.27516267,0.1396513903,-10.533338,-2.644658217,10.8611661
44.28514367,0.2832788873,-10.40930218,-2.133468897,10.62946416
44.29512467,0.4359128505,-10.05591752,-1.353587154,10.15596846
44.30510567,0.7763295597,-9.468954715,-0.6770444226,9.524819165
44.31508667,0.9870783415,-8.715901752,-0.6046639328,8.792433421
44.32506767,0.97050302,-7.817807434,-0.8912185764,7.928067844
44.33504867,0.7165993747,-6.647492484,-1.075252672,6.771915482
44.34502967,0.1416409054,-5.191418842,-0.6424715906,5.232940042
44.35501067,-0.4512919047,-3.658204638,0.02919982553,3.686051843
44.36499167,-0.9582653823,-2.026295282,0.4636842012,2.288918555
44.37497267,-0.8599842853,0.1399174386,0.704466987,1.120456869
44.38495367,-0.6025979653,2.41063569,0.8212116176,2.616997757
44.39493467,-0.4233135626,4.377026832,0.7747484726,4.465175636
44.40491467,-0.7068652225,6.34599952,0.3364856261,6.394105952
44.41489567,-0.9905636474,8.477948726,-0.02724276245,8.535664772
44.42487667,-0.8192627406,10.51301074,-0.02114820957,10.54490557
44.43485767,-0.4378371692,12.96536105,0.4546736419,12.98071711
44.44483867,0.2487721288,15.89042483,0.7824334681,15.91162126
44.45481967,0.917677812,18.73850651,0.2863533533,18.76314891
44.46480067,1.574963616,21.42316904,-1.089418722,21.50859166
44.47478167,2.079367242,23.28394251,-2.736940144,23.53628238
44.48476267,2.539610357,24.10611015,-3.961542399,24.56110717
44.49474367,2.389765223,23.61619768,-4.4241665,24.14557971
44.50472467,0.955609577,22.09481297,-2.290513415,22.23376715
44.51470567,-0.8176863313,20.11801905,2.305252492,20.26616615
44.52468667,-2.386634624,18.54537532,7.299130754,20.07247569
44.53466767,-3.239227663,16.56169922,11.45151458,20.39410854
44.54464767,-2.809885329,14.71142852,13.25681902,20.00162082
44.55462867,-1.54286708,13.46472262,12.51637207,18.44827265
44.56460967,-0.180621734,12.63158093,9.239171419,15.65093446
44.57459067,1.071740031,11.32771031,4.524503843,12.2448676
44.58457167,2.372954186,9.827320622,0.5036119133,10.12229061
44.59455267,3.82227751,8.066794741,-2.214510722,9.197121315
44.60453367,4.514658594,5.801427276,-3.983180605,8.360886819
44.61451467,3.853681735,3.16973409,-4.287225294,6.578630393
44.62449567,2.074747796,0.2575914842,-3.240631287,3.856503978
44.63447667,0.04752865389,-3.053711298,-1.304062699,3.32084194
44.64445767,-1.435488081,-5.967550766,0.7583081487,6.184441723
44.65443867,-2.007667953,-8.337407389,2.363377616,8.895428396
44.66441967,-1.822902663,-10.41398697,2.714790599,10.9153189
44.67439967,-1.110329534,-11.82900146,2.083184012,12.06224535
44.68438067,-0.06792578861,-12.72636663,0.7108710037,12.74638612
44.69436167,1.139540908,-13.05908958,-0.5702159388,13.12110972
44.70434267,1.867073845,-13.16446693,-1.625545247,13.39520629
44.71432367,2.252641,-13.74877217,-2.613083838,14.17502504
44.72430467,2.469502534,-13.86412136,-3.10692213,14.42100097
44.73428567,2.571169534,-14.10080028,-3.346926359,14.71887895
44.74426667,2.482228999,-14.37244204,-3.543041387,15.00938684
44.75424767,2.146079587,-14.67189199,-3.560098885,15.24940576
44.76422867,1.696121579,-14.6618301,-3.910337162,15.26881878
44.77420967,1.606831672,-14.86171249,-4.339960747,15.56559236
44.78419067,2.026022363,-14.76345471,-4.239842967,15.49324465
44.79417167,2.814967436,-14.52371185,-4.21379596,15.38240306
44.80415267,3.754577277,-14.32483401,-3.945754917,15.32536139
44.81413267,3.91796427,-14.01022691,-3.477817451,14.95767751
44.82411367,3.285463059,-13.72964593,-3.789015623,14.6169109
44.83409467,2.475840331,-13.48984226,-4.288939698,14.3701299
44.84407567,1.688809489,-12.93302361,-4.0401243,13.65422211
44.85405667,0.9489092526,-11.93013491,-3.433685006,12.45065221
44.86403767,0.3897965185,-10.61717304,-2.707814578,10.96396664
44.87401867,0.1769347722,-8.779927009,-1.004603251,8.838984777
44.88399967,-0.08262218043,-6.649847742,0.9652797022,6.720049578
44.89398067,-0.927626484,-5.005672681,2.263501326,5.571417067
44.90396167,-1.833333949,-3.697901385,2.811338362,4.993917441
44.91394267,-2.460510101,-2.255020232,3.36629146,4.740373867
44.92392367,-1.558998378,-0.3823780829,4.180855086,4.478419162
44.93390467,0.1760146397,2.131068031,4.064929358,4.593047222
44.94388567,1.547515616,5.281686988,2.701690789,6.131081074
44.95386567,2.792363563,8.750935344,1.099485727,9.251217894
44.96384667,3.555021455,11.92464905,-0.02949247867,12.4433236
44.97382767,3.801229287,13.80789337,0.3363270204,14.32551497
44.98380867,3.071957535,14.32584207,1.154780506,14.69694499
44.99378967,1.747391866,14.38306292,1.380549835,14.55444246
45.00377067,0.7851206291,15.12550728,1.265953618,15.19868493
45.01375167,0.4013114402,16.43074381,0.8075225548,16.45546978
45.02373267,-0.05081420437,18.72672905,0.2061269233,18.72793238
45.03371367,-0.8345147641,20.7600293,0.2828821537,20.77872117
45.04369467,-2.55106593,21.35730133,0.7113377577,21.5208796
45.05367567,-5.120340089,20.98352625,1.242469591,21.63492517
45.06365667,-7.473122842,20.46434496,2.401657583,21.91814177
45.07363767,-8.461889348,20.29750518,4.777625424,22.50373286
45.08361767,-8.092937642,20.30423416,7.551597154,23.12540127
45.09359867,-6.452420599,19.80007085,9.249335634,22.7865475
45.10357967,-3.783657235,19.0102313,9.322526987,21.50847427
45.11356067,-0.9249764527,17.90819253,7.766805096,19.54180654
45.12354167,0.8212420231,16.20166744,5.270842742,17.05726384
45.13352267,1.361891662,13.79470907,2.367516568,14.06249913
45.14350367,1.21825861,11.09515017,-0.05718226075,11.16197927
45.15348467,0.8058960056,8.317733263,-0.9823614657,8.414225398
45.16346567,0.1963510365,5.300805629,-0.6634651414,5.345772165
45.17344667,-0.2306314346,2.37723464,0.1525117564,2.393260376
45.18342767,-0.5412333374,-0.5631921172,1.094635315,1.344747322
45.19340867,-0.7101326466,-3.435927998,2.016013538,4.046504685
45.20338967,-0.5649120757,-5.878273723,2.599358668,6.452123147
45.21337067,-0.2565547729,-7.903117726,1.970030449,8.148994423
45.22335067,0.2661974893,-9.491944213,0.2362529477,9.498614715
45.23333167,1.02669162,-10.64697863,-1.416937789,10.78980827
45.24331238,1.825118026,-11.82739699,-2.378528044,12.20146594
45.25329338,2.291140822,-12.80348205,-2.750641925,13.29452932
45.26327438,2.472861467,-13.46737375,-2.716932142,13.95947419
45.27325538,2.258258712,-13.93564334,-2.261479212,14.2974185
45.28323637,1.894312222,-14.17983593,-1.767051374,14.41452865
45.29321738,1.575451566,-14.40483795,-1.320652127,14.55079126
45.30319838,1.352338627,-14.85921573,-1.221016303,14.97050409
45.31317937,1.128277051,-14.99862036,-1.257166568,15.09344526
45.32316038,1.050977591,-15.01782613,-1.406432535,15.12010939
45.33314137,0.9531382513,-15.1260043,-1.725244367,15.253883
45.34312238,0.7092868468,-15.44529619,-2.120504451,15.60630646
45.35310338,0.3481544027,-15.37103889,-2.40161636,15.56142053
45.36308337,0.09930574849,-15.54220209,-2.555104601,15.75114177
45.37306438,0.02241880953,-15.6535857,-2.269778019,15.81730509
45.38304538,-0.06566795938,-15.53154963,-1.50699295,15.60462669
45.39302638,0.04448722467,-15.60134551,-0.851357011,15.62462062
45.40300738,0.2773727609,-15.59247879,-0.4615605656,15.60177453
45.41298837,0.3795885225,-15.36691777,-0.3410025271,15.37538721
45.42296938,0.4725705072,-15.03466143,-0.5897899318,15.05364472
45.43295038,0.628673989,-14.64493866,-1.020923926,14.69393566
45.44293138,0.9966761074,-14.03246972,-1.388309675,14.13615837
45.45291238,1.243800418,-13.26168391,-1.691882493,13.42690455
45.46289337,1.433100809,-12.54835868,-1.872418931,12.76796915
45.47287438,1.177795805,-11.53636586,-1.792801781,11.73409896
45.48285538,0.5319382379,-10.46480161,-1.426082103,10.57491093
45.49283638,-0.1854447368,-9.30000702,-0.5125809574,9.315967989
45.50281638,-1.222159946,-7.282882512,1.087885143,7.464418711
45.51279737,-2.049214028,-4.951018757,3.234874996,6.259095869
45.52277838,-1.869639896,-2.988448185,5.417976814,6.463810691
45.53275938,-1.122485384,-0.5930988711,6.457640408,6.581250592
45.54274037,-0.268203669,2.290197081,5.957207626,6.387899387
45.55272138,-0.2795433205,6.123812342,3.956755283,7.296241117
45.56270237,-1.379682985,11.37273738,1.11558852,11.51030922
45.57268338,-3.738981876,16.52288891,-1.171872649,16.98114039
45.58266438,-5.833005749,19.76857073,-1.744623209,20.68487503
45.59264537,-6.210757515,23.09896935,-0.4623206306,23.92382984
45.60262638,-4.966586968,26.49672556,1.819765193,27.01952991
45.61260737,-3.891021762,29.54926215,3.441437244,30.00237381
45.62258838,-3.486302638,32.67670157,3.314722234,33.02890424
45.63256938,-3.614707493,34.58271846,2.27910082,34.84572896
45.64254937,-4.795290155,35.61285519,1.202200402,35.95435367
45.65253038,-6.826984463,34.85152666,0.8927461615,35.52511257
45.66251138,-8.415356036,32.71856764,2.898070697,33.90754635
45.67249238,-8.545664746,30.10198541,6.337925684,31.92690423
45.68247338,-7.421607118,27.06354763,8.776547903,29.40312323
45.69245437,-5.980063807,23.60139954,9.40807409,26.10170649
45.70243538,-4.330722731,20.29567851,7.769566736,22.1593297
45.71241638,-1.990909541,17.41542428,4.982100216,18.22311846
45.72239738,0.4962619632,14.41555941,1.745553501,14.52933536
45.73237838,1.825990723,11.13349621,-1.272283959,11.35375209
45.74235937,1.735097072,7.222715832,-2.798014312,7.937699284
45.75234038,1.138177191,2.725307693,-2.203486381,3.684847565
45.76232138,0.3057482752,-1.956233944,0.02282226741,1.98011467
45.77230138,-1.038102534,-6.838364314,2.945396891,7.517728793
45.78228238,-1.962323673,-11.54260835,5.478237634,12.92646933
45.79226337,-2.025529735,-15.48124487,6.445410372,16.89127077
45.80224438,-1.338650149,-18.15931057,5.506002553,19.02284439
45.81222538,0.1519021842,-19.62444622,3.511456482,19.93670711
45.82220637,2.196762229,-19.89803277,1.674174786,20.08881115
45.83218738,3.648420492,-19.42573211,0.482320447,19.77125876
45.84216837,4.225380171,-18.90574507,-0.2308235887,19.37354675
45.85214938,4.090841002,-18.36852277,-0.5099030057,18.82545112
45.86213038,3.377886489,-17.70365225,-0.376204154,18.02695065
45.87211137,2.497186469,-17.14497302,0.001978770867,17.32587787
45.88209238,1.723634629,-16.6342047,0.5012606017,16.73077836
45.89207337,0.9682390512,-15.98418026,1.05661533,16.04830026
45.90205438,0.3219304811,-15.42510926,1.259810679,15.47981776
45.91203438,-0.2093507491,-14.8756043,1.222458738,14.92721798
45.92201537,-0.6396859771,-14.26864461,1.063462274,14.32251267
45.93199638,-0.8786037934,-13.6820379,0.8696387693,13.73777192
45.94197738,-0.7443707255,-13.09118611,0.6536402842,13.1286133
45.95195838,-0.2763423353,-12.51951787,0.4911462343,12.53219524
45.96193938,0.426694715,-12.03233956,0.6942083395,12.05990003
45.97192037,0.8164218709,-11.31068322,1.04787367,11.38842126
45.98190138,1.081324421,-10.84876839,1.063009772,10.9542242
45.99188238,1.3765442,-10.6003658,1.203261087,10.75687995
46.00186338,1.399690988,-10.27679726,1.382032689,10.46335085
46.01184438,1.319736746,-10.12030355,1.428956594,10.30554055
46.02182537,1.239487219,-9.922996273,1.320418239,10.08690676
46.03180638,1.222887851,-9.529397968,1.051619396,9.664925436
46.04178638,1.06534632,-9.508890613,0.7835128641,9.600409152
46.05176738,0.7480316672,-9.576734687,0.8936229515,9.647381024
46.06174838,0.4166620624,-9.676001113,1.288913441,9.77035837
46.07172937,0.3045098349,-9.883034062,1.684365313,10.03016326
46.08171038,0.4938026243,-9.91006574,1.966395235,10.11533263
46.09169138,0.7285195085,-9.699523292,1.958269944,9.922011588
46.10167237,0.591936737,-9.586131163,1.513119078,9.722850874
46.11165338,0.2214112526,-9.200038928,1.059616633,9.263505094
46.12163437,0.2883926063,-8.635655733,0.683471609,8.667459471
46.13161538,0.6179173779,-8.051488484,0.1360019968,8.076310125
46.14159638,0.9958948463,-7.359177566,-0.1965027718,7.428856866
46.15157737,1.021684283,-6.504881818,0.5255728859,6.605569854
46.16155838,0.2348896694,-5.440500873,1.602158723,5.676366398
46.17153937,-1.617601805,-4.29023778,2.399271626,5.17487006
46.18151938,-3.925207216,-2.651949111,2.847891061,5.527256939
46.19150038,-5.804022855,0.1798141605,2.453984608,6.304050673
46.20148137,-6.603198656,3.388411769,0.9932903503,7.48800324
46.21146238,-6.677427889,7.068729408,-0.8383179393,9.760007972
46.22144338,-6.619284346,11.1799348,-2.261771427,13.18792923
46.23142438,-7.295651076,15.70007808,-3.344412056,17.63247199
46.24140513,-8.254635374,20.4587059,-4.865477208,22.59138156
46.25138613,-9.109308268,25.39967797,-5.322744967,27.50372252
46.26136713,-9.300763065,31.29023319,-2.504344045,32.73919097
46.27134813,-6.706861603,36.32315857,2.884738753,37.04963642
46.28132912,-3.29301737,39.41561294,10.48274555,40.91848556
46.29131013,-1.286586541,41.11088448,19.99307107,45.73273464
46.30129113,-1.329884442,40.57518129,29.69678974,50.29923707
46.31127212,-2.376794783,38.40321198,37.32738512,53.60773754
46.32125213,-2.916635899,35.31906301,40.22857238,53.61232146
46.33123312,-3.084185817,31.30471323,38.1840677,49.47241958
46.34121413,-2.584431311,26.6669497,31.58925044,41.420843
46.35119513,-0.2709415546,22.60693083,21.39127365,31.12448103
46.36117612,2.797463504,19.20904365,9.250905612,21.50331171
46.37115713,4.369018486,15.24618212,-1.137300986,15.90056116
46.38113813,4.355209116,10.36470547,-6.780471032,13.12896619
46.39111913,4.253027561,5.201926873,-8.255207816,10.64409426
46.40110013,3.728029164,-0.2339313108,-7.159727286,8.075556954
46.41108112,2.306827732,-5.89921728,-4.520354952,7.781762499
46.42106213,0.5781028095,-10.57187583,-2.198891639,10.81359726
46.43104313,-1.241302633,-14.26233195,-0.3976179734,14.32176822
46.44102413,-2.717545807,-16.9569558,1.147163339,17.21160623
46.45100413,-2.321304853,-19.11508123,0.5788395587,19.26421143
46.46098512,0.2030071414,-20.67292917,-1.342189323,20.7174488
46.47096613,3.256272297,-20.02446126,-2.792707379,20.47880789
46.48094713,4.483365465,-19.17956667,-4.527674496,20.21029885
46.49092813,4.480621952,-19.02913652,-6.491366563,20.599074
46.50090913,4.024649936,-18.47085489,-6.804610092,20.09161532
46.51089012,3.843358476,-18.38064522,-5.667958147,19.61492474
46.52087113,3.072213643,-18.41750373,-2.970969688,18.90686651
46.53085213,1.459233185,-17.90921346,1.534066143,18.03393044
46.54083313,1.396997468,-17.7856805,3.783201152,18.23717752
46.55081413,0.6673555863,-17.64690269,5.299628584,18.43758664
46.56079512,0.3683774366,-17.1192745,6.019475795,18.15046419
46.57077613,0.4960644004,-16.32249548,5.059816144,17.09595502
46.58075713,0.500364589,-15.48984378,3.40321458,15.86718294
46.59073712,0.6895310055,-14.72939818,2.149931148,14.90143711
46.60071813,1.263982083,-13.8874307,1.451167243,14.02013797
46.61069913,2.018306231,-13.08123298,0.8833932477,13.26546645
46.62068013,2.406108483,-12.348005,0.473622129,12.58915817
46.63066113,2.484468482,-11.82236604,0.1453436548,12.08147538
46.64064212,2.545317239,-11.56156619,-0.01862164596,11.83844582
46.65062313,2.61301104,-11.25782907,0.09567681114,11.55749523
46.66060413,2.435727554,-10.92216848,0.4566435689,11.1997793
46.67058513,2.0313521,-10.70321482,0.9317666781,10.93404719
46.68056613,1.4362298,-10.59000453,1.194342914,10.75348349
46.69054712,1.090749475,-10.49953057,1.111541662,10.61439595
46.70052813,0.8767603856,-10.2196302,0.965621472,10.30252275
46.71050913,0.6075676601,-9.815503399,0.5573279446,9.850069029
46.72048913,0.2636291729,-9.52656967,-0.2249447616,9.532871035
46.73047013,-0.3542159919,-9.085605994,-0.993224496,9.146595003
46.74045112,-1.091878499,-8.821449257,-1.71101049,9.051945788
46.75043213,-1.305769794,-8.696874912,-2.317693613,9.094634224
46.76041313,-0.7653790404,-8.527929556,-1.090024055,8.631311605
46.77039413,-0.3937164187,-8.15744354,1.307206893,8.270894002
46.78037513,-0.9237185705,-7.743096975,2.715954487,8.257433956
46.79035612,-1.93013475,-6.682651207,3.377955194,7.732646933
46.80033713,-3.421711662,-5.275017069,3.132074513,7.024514683
46.81031813,-4.80856655,-3.152605841,1.68821015,5.992602887
46.82029913,-6.542717981,0.1433643723,-0.1514054632,6.546039683
46.83028013,-8.053525069,4.512171189,-3.564805309,9.895796672
46.84026112,-8.173522798,9.028007997,-6.112723682,13.62632724
46.85024213,-7.405395713,13.27005127,-3.583980668,15.61342576
46.86022213,-6.426648996,16.99646543,3.344024386,18.47604269
46.87020312,-5.663682663,20.32472514,9.835559349,23.27896005
46.88018413,-5.805239661,23.54067972,12.47481474,27.2669289
46.89016513,-5.844883783,26.85098496,11.6373847,29.84236557
46.90014613,-4.360344141,30.35406122,9.971191363,32.24602752
46.91012713,-1.893797375,32.8853045,10.49719168,34.57196485
46.92010812,0.2840834276,33.42430552,14.44996326,36.41519382
46.93008913,2.701579692,32.561474,19.23899075,37.91684174
46.94007013,5.489075448,31.51178185,22.18102666,38.92454609
46.95005113,7.098339708,30.0498376,22.01500082,37.92149032
46.96003213,6.27020908,27.74940263,19.47354362,34.47555322
46.97001312,4.311628649,24.4690632,16.42878499,29.78640918
46.97999413,2.617452877,20.6364519,13.89817204,25.01746176
46.98997413,1.638043671,17.04613753,11.44692685,20.59820687
46.99995513,1.100153625,13.52719427,8.345809253,15.93260352
47.00993613,0.7842686167,9.992089312,4.753655348,11.0929782
47.01991712,0.8110719609,6.568574953,1.521842539,6.791172163
47.02989813,0.929183232,3.185687633,-0.7567197526,3.403617481
47.03987913,0.9621138735,-0.06066018462,-1.807127021,2.048182324
47.04986013,0.7786013491,-3.349354123,-1.440404273,3.728157396
47.05984113,0.538080738,-6.678415484,-0.4466895613,6.714930813
47.06982212,0.2536131117,-9.800024065,0.4958406714,9.815836656
47.07980313,0.005887707621,-12.82278956,1.34935991,12.89359294
47.08978413,-0.2229734094,-15.54322535,1.144265897,15.58688282
47.09976512,-0.2056603155,-17.31677708,-0.2430056047,17.31970312
47.10974613,0.327064373,-18.40168116,-2.274440881,18.5445928
47.11972712,1.082144493,-18.861491,-4.083567942,19.32879734
47.12970713,1.917615423,-18.97771377,-5.2733243,19.78986655
47.13968813,2.689444966,-19.07935007,-5.911289442,20.15435576
47.14966912,3.10638097,-19.25631839,-6.128538061,20.44539996
47.15965013,2.829217686,-19.24623662,-5.927594987,20.33613727
47.16963113,1.973232384,-19.13391862,-5.222728343,19.93181826
47.17961213,0.7392757541,-19.15317467,-4.415326679,19.66941124
47.18959313,-0.2977165033,-19.00151544,-3.738826048,19.3681451
47.19957412,-0.9080307832,-18.52364239,-2.863363379,18.76562541
47.20955513,-1.194254913,-17.81219646,-2.06901577,17.97168366
47.21953613,-1.274042802,-16.95230726,-1.830373358,17.09836756
47.22951713,-1.103055525,-15.94887009,-1.888995203,16.09818287
47.23949804,-0.6861391819,-15.04681078,-2.226231027,15.22607652
47.24947904,-0.08771287601,-14.16009456,-2.530790709,14.38474445
47.25945904,0.413339711,-13.3163811,-2.415348692,13.53996915
47.26944004,0.870051071,-12.6548739,-2.245615716,12.8819879
47.27942104,1.105794142,-12.20808815,-1.777569492,12.38628073
47.28940204,0.9313430473,-11.79788258,-0.9814721042,11.87521456
47.29938304,0.6151118839,-11.52246469,-0.01304162979,11.53887886
47.30936404,0.1202798572,-11.20253897,0.5566976148,11.21700757
47.31934504,-0.716779469,-10.59797195,0.803011428,10.65249312
47.32932604,-1.300859887,-9.927809701,0.6438633741,10.03335447
47.33930704,-1.503035554,-8.924018775,0.1843568623,9.051586293
47.34928804,-1.97651852,-7.596074,0.07836672306,7.849401698
47.35926904,-2.291568253,-6.331864461,0.2308296552,6.737735149
47.36925004,-2.7527937,-4.190223495,0.5054789293,5.038983532
47.37923104,-3.747338717,-1.452964092,0.8546606147,4.109026269
47.38921204,-5.412772207,1.807051592,0.2436838818,5.711647771
47.39919204,-6.676347908,5.655366753,-1.178362181,8.828665354
47.40917304,-6.75363582,10.21558393,-1.590726832,12.34909566
47.41915404,-4.36000091,14.41849354,0.0642766875,15.06342243
47.42913504,-0.2692987794,18.44639833,3.803797969,18.8364278
47.43911604,3.228433703,21.954143,9.36707283,24.08628723
47.44909704,5.260213673,24.27147642,15.41920357,29.23228103
47.45907804,4.89700978,26.00435959,18.69308885,32.39813256
47.46905904,2.451024747,27.61887875,17.29600894,32.67968651
47.47904004,-0.5449279737,28.90480075,14.04908985,32.14282779
47.48902104,-2.589968625,29.80071581,12.16609345,32.29248256
47.49900204,-3.405190939,29.63540567,11.50052828,31.97052932
47.50898304,-3.413984567,28.58795651,12.1676336,31.25664498
47.51896404,-2.601657209,26.75478423,12.76185105,29.75654452
47.52894404,-0.7914311635,24.66360942,12.44846602,27.63845688
47.53892504,-0.02863206089,22.11167401,10.60983829,24.52540755
47.54890604,0.1797961072,19.20588615,8.00006807,20.80623653
47.55888704,-0.1118873486,16.16559363,4.972697893,16.91350527
47.56886804,-1.272180317,12.62413859,2.280345692,12.89136511
47.57884904,-2.705209936,8.828921998,0.8954943529,9.277388349
47.58883004,-3.438272439,4.956266633,0.6593978181,6.068039369
47.59881104,-2.936964036,1.540344298,0.6902851501,3.387463933
47.60879204,-1.383634826,-1.623197005,0.6472835568,2.228943663
47.61877304,0.3086544145,-4.498072382,0.8239361277,4.583316861
47.62875404,1.120712216,-7.091260484,0.8328724274,7.227423303
47.63873504,0.9527046803,-9.727498126,0.7610192102,9.803622608
47.64871604,0.2711249379,-11.96902357,0.4950904736,11.98232651
47.65869704,-0.3208083273,-13.78017757,-0.335499347,13.78799375
47.66867704,-0.5530449323,-15.14686131,-1.381268165,15.21976242
47.67865804,-0.4309815281,-16.10527142,-2.416587132,16.29126778
47.68863904,-0.3830326421,-16.61965799,-3.612113961,17.0119697
47.69862004,-0.6399251282,-16.77602306,-4.813903888,17.4647681
47.70860104,-0.9962465563,-16.77639612,-5.73535257,17.75765308
47.71858204,-1.263906654,-17.09353155,-5.927389165,18.1361579
47.72856304,-1.16615144,-17.24994808,-5.094253905,18.02420708
47.73854404,-1.042936281,-17.20364866,-3.748914249,17.63824258
47.74852504,-1.060383495,-17.51242842,-2.696784976,17.75055525
47.75850604,-1.19923908,-17.51735879,-2.15917545,17.69062102
47.76848704,-1.492376665,-17.2422087,-1.775515219,17.39751141
47.77846804,-1.585423115,-16.86346584,-1.375232377,16.99356674
47.78844904,-1.227952417,-16.29029135,-1.119989792,16.37485379
47.79842904,-0.6410112485,-15.60642674,-1.039910932,15.65416448
47.80841004,-0.02080790162,-14.88980134,-1.033798252,14.92566098
47.81839104,0.1765014204,-14.28385789,-1.155504099,14.33160629
47.82837204,0.162131888,-13.87740507,-1.412874559,13.95008504
47.83835304,0.08235657066,-13.3996513,-1.758289175,13.51477038
47.84833404,0.08955537021,-13.02771927,-2.027021506,13.18477552
47.85831504,0.09908896297,-12.7782174,-1.939502721,12.92494988
47.86829604,-0.01946478705,-12.54383293,-1.521428117,12.63577726
47.87827704,-0.3855385029,-12.23943156,-1.035657082,12.28921928
47.88825804,-0.9843004024,-11.90928841,-0.787791418,11.97583455
47.89823904,-1.58912411,-11.25066974,-0.603895901,11.37838192
47.90822004,-1.907487169,-10.1439953,-0.2884105499,10.32580886
47.91820104,-1.884597073,-8.905529879,0.2140586713,9.10527263
47.92818104,-1.622006805,-7.286290269,0.9002057469,7.518730102
47.93816204,-1.107732494,-5.12220535,1.641687071,5.491738829
47.94814304,-0.8009606633,-2.382362648,2.567892462,3.593224383
47.95812404,-0.6536590683,0.6389866501,3.733359486,3.843637231
47.96810504,-1.009848349,3.996580085,5.351286396,6.754902823
47.97808604,-1.800000435,7.243827789,7.886902227,10.85892579
47.98806704,-2.410112949,10.86494412,11.03295568,15.67104866
47.99804804,-2.547229864,15.16769144,14.04132123,20.82560793
48.00802904,-2.97819977,18.83507679,15.68137284,24.6887676
48.01801004,-3.591285302,22.96691817,15.57167089,27.97952099
48.02799104,-3.486812223,27.44149293,14.36613056,31.17016364
48.03797204,-2.300032975,31.32805064,12.81530629,33.9259338
48.04795304,-0.9426454228,34.02343462,11.37034002,35.885475
48.05793404,-0.3070554203,35.24156167,10.70769729,36.8336359
48.06791404,0.2233411261,34.83431947,10.64366092,36.42481588
48.07789504,1.522145132,33.71412393,11.61058574,35.6898414
48.08787604,2.888588559,31.47219386,13.75257286,34.46703049
48.09785704,2.200296725,27.98878062,14.77354934,31.72492564
48.10783804,-1.003103586,23.27755735,14.52391533,27.45532753
48.11781904,-4.474243517,17.82026912,13.21581016,22.6326862
48.12780004,-6.658988695,13.21343151,10.44668226,18.11270474
48.13778104,-7.20291599,8.837282932,6.854894977,13.30297536
48.14776204,-5.874002332,4.791243004,3.433920941,8.32176219
48.15774304,-3.354974174,1.746422397,0.6818832859,3.843280853
48.16772404,-0.7829658571,-0.9976156819,-0.3761209774,1.322777219
48.17770504,0.71620498,-3.829381877,0.1024496502,3.897128566
48.18768604,0.9814763434,-6.332127585,0.7415845272,6.450510304
48.19766704,0.06215926453,-8.815675716,0.7260537377,8.84574226
48.20764704,-1.320361959,-11.41174649,-0.3425740394,11.49298354
48.21762804,-1.98367595,-13.54732507,-2.057689275,13.8455434
48.22760904,-1.626559301,-14.68549846,-3.787621647,15.25305339
48.23759004,-0.887407946,-15.15608822,-5.032761662,15.99447383
48.24757179,-0.01589989498,-15.39121178,-5.622489613,16.38603193
48.25755279,0.5010386999,-15.40211567,-5.558307066,16.38203236
48.26753379,0.783340956,-15.59763954,-4.765023504,16.32805657
48.27751479,0.5570662817,-16.19157047,-3.581165818,16.59222787
48.28749579,-0.558121558,-16.94905972,-2.458214484,17.13548784
48.29747679,-2.026936575,-17.26902521,-1.606151641,17.46159862
48.30745779,-2.915111237,-17.44804824,-1.159670094,17.72786213
48.31743879,-3.267373528,-17.05967851,-0.9887361002,17.39787228
48.32741879,-3.134523034,-16.47962653,-1.162670885,16.81532423
48.33739979,-2.732504739,-15.71095741,-1.321676559,16.00148724
48.34738079,-1.998823455,-14.92576172,-1.248618377,15.11068185
48.35736179,-1.304449785,-14.08070691,-1.200445068,14.19186262
48.36734279,-1.275864502,-13.35358109,-1.406733667,13.48795231
48.37732379,-1.48242178,-12.98554213,-1.908749875,13.20852773
48.38730479,-1.676338109,-12.39816476,-2.269563865,12.71516885
48.39728579,-1.659148026,-11.94033713,-2.080523529,12.23327434
48.40726679,-1.559244254,-11.61837891,-1.710217608,11.8466373
48.41724779,-1.670349245,-11.27449831,-1.704502685,11.52430944
48.42722879,-1.591695423,-10.8554845,-1.675707487,11.09878523
48.43720979,-1.311830725,-10.3087137,-1.231797984,10.46459767
48.44719079,-1.091760312,-9.688084969,-0.4367602582,9.759184928
48.45717179,-1.20017785,-9.151328698,0.3001212072,9.234571812
48.46715179,-1.453434793,-8.731054811,0.93648772,8.900606724
48.47713279,-1.785547872,-8.059406784,1.43243788,8.378191761
48.48711379,-2.263569446,-7.253777411,1.797310715,7.808415919
48.49709479,-2.790184305,-6.535876738,2.747546993,7.619175
48.50707579,-3.733956487,-5.534185547,4.268110161,7.923787293
48.51705679,-5.158260452,-4.030353602,5.319228451,8.434784666
48.52703779,-6.273664784,-2.342697476,5.153710148,8.450315354
48.53701879,-6.730918218,0.154381696,4.433760027,8.061471438
48.54699979,-6.708555542,3.506329059,4.070034562,8.594430886
48.55698079,-5.732671037,6.96055241,4.106329399,9.908317122
48.56696179,-4.442192296,10.19014386,4.635445697,12.04406331
48.57694279,-3.858572347,13.4972308,5.751883233,15.17062888
48.58692379,-4.428845442,16.87345405,6.318146893,18.55389726
48.59690479,-6.211857376,19.91703856,5.49949694,21.57591397
48.60688479,-8.139439963,22.93928423,3.659361218,24.61406444
48.61686579,-9.957929878,26.05031871,1.492927765,27.92862878
48.62684679,-11.11700005,28.69712168,-0.4506703457,30.77849228
48.63682779,-10.75683612,30.57024214,0.009426296353,32.4075503
48.64680879,-8.890931135,30.39812583,3.524843098,31.86721245
48.65678979,-5.155622188,29.54095209,8.746254648,31.23692143
48.66677079,-0.6391600201,28.45678007,14.7801602,32.07257385
48.67675179,1.658954483,26.18590862,18.66203429,32.19822144
48.68673279,0.8652557695,22.88065069,19.13606572,29.84060748
48.69671379,-1.197410144,19.22895459,17.4415321,25.98833445
48.70669479,-2.70758069,15.37383619,15.53739919,22.02490876
48.71667579,-3.17781962,11.68678549,13.4859714,18.12597355
48.72665679,-2.472907367,7.975267689,11.14639751,13.9270364
48.73663679,-0.6252260321,4.353999912,8.949124964,9.971713015
48.74661779,1.476437301,1.029633865,6.57549104,6.817411196
48.75659879,2.686565212,-2.090466719,3.800332909,5.101981376
48.76657979,3.062981766,-5.323184677,0.9213092253,6.210230519
48.77656079,2.927930965,-8.26164677,-1.48550414,8.890124276
48.78654179,2.520587903,-11.04617857,-3.088259279,11.74345647
48.79652279,1.854950521,-13.51359131,-4.28625144,14.29789995
48.80650379,1.448542428,-15.26410968,-5.268897958,16.21272973
48.81648479,1.40951431,-16.47835067,-6.001586239,17.5938003
48.82646579,1.920123586,-17.15675516,-6.546827404,18.46353355
48.83644679,2.610556086,-17.37342724,-6.952944013,18.89429564
48.84642779,3.114487258,-17.44306407,-7.133508371,19.10098052
48.85640879,3.379862263,-17.40959344,-7.135416318,19.11626477
48.86638979,3.141178628,-17.39896905,-6.640226734,18.8860726
48.87636979,2.792432852,-17.24935868,-5.396821588,18.28834983
48.88635079,1.877193183,-16.97903722,-3.964850754,17.53657894
48.89633179,0.9356413355,-16.72446115,-3.115647345,17.03790726
48.90631279,0.06820557788,-16.64763692,-2.575697325,16.84585064
48.91629379,-0.4498280543,-16.03451075,-2.009029039,16.16613986
48.92627479,-0.6072215049,-15.44989677,-1.645841079,15.54917429
48.93625579,-0.4203471239,-14.69982531,-1.22074894,14.756415
48.94623679,0.08374222373,-13.96566645,-0.7451429965,13.98578172
48.95621779,0.5342334893,-13.37257869,-0.7026715994,13.40167951
48.96619879,0.9283798246,-12.874714,-0.9093063533,12.9401309
48.97617979,1.380716773,-12.62978233,-1.109682832,12.75339862
48.98616079,1.529180063,-12.57940389,-1.066466208,12.71680557
48.99614179,1.29348304,-12.6895666,-0.8246882258,12.78195249
49.00612179,0.9797357735,-12.56674349,-0.382004592,12.61066421
49.01610279,0.8708930701,-12.5142507,0.1055340564,12.54496165
49.02608379,1.192322993,-12.02922416,0.661891948,12.10627808
49.03606479,1.611056578,-11.41248558,1.459500695,11.61767932
49.04604579,2.085151308,-10.51645124,1.9991987,10.90597992
49.05602679,2.328964413,-9.101297582,2.182390797,9.644714745
49.06600779,1.931284459,-7.420321316,1.616321849,7.836040097
49.07598879,1.139319006,-5.745921412,1.217556067,5.982984494
49.08596979,0.11680895,-3.920199076,1.48147804,4.192419624
49.09595079,-1.07360712,-1.511978871,2.123877125,2.819497543
49.10593179,-2.484262075,2.037929487,2.019135658,3.794947096
49.11591279,-4.014568166,6.115527422,0.04832109779,7.31565227
49.12589379,-4.796214307,9.951796149,-2.348736188,11.29417903
49.13587379,-4.231747204,13.42584565,-1.800638366,14.19166355
49.14585479,-2.348321328,16.94206996,2.571552819,17.29627796
49.15583579,-0.72935376,20.22833496,7.266307409,21.50620179
49.16581679,-0.8186377463,23.35160181,9.573387741,25.2510837
49.17579779,-1.857858195,26.46807888,10.02746731,28.3647834
49.18577879,-2.477835108,28.70037274,9.202596501,30.2413433
49.19575979,-3.056974629,29.85870382,8.394506035,31.16656893
49.20574079,-3.52643471,29.69801298,9.755943661,31.4576883
49.21572179,-3.565990539,28.8042263,12.30935608,31.52649661
49.22570279,-3.273805465,27.61060844,14.12156491,31.1846452
49.23568379,-3.808831545,25.44824027,13.09520783,28.87221153
49.24566425,-5.360838992,22.18611842,9.60873299,24.76469654
49.25564525,-5.476548373,18.38248125,6.427063563,20.22907178
49.26562525,-3.301588803,14.40381586,4.994384047,15.59853429
49.27560625,-2.357336711,10.61242159,3.678610544,11.47661553
49.28558725,-1.249720724,7.11874649,1.229193488,7.331389371
49.29556825,0.1162425924,5.875850052,-1.660318639,6.10702744
49.30554925,0.6311255803,3.638547469,-4.483370728,5.808438711
49.31553025,1.256113777,-0.0228164202,-4.875645808,5.034904612
49.32551125,2.04184259,-3.498403158,-2.738211914,4.889350704
49.33549225,2.514724607,-6.773390054,-0.06400333017,7.2254238
49.34547325,1.950555274,-9.732466505,1.308312748,10.01185559
49.35545425,0.0957172757,-12.19295556,0.8682618231,12.22420572
49.36543525,-2.062943875,-13.59530966,-0.9201196092,13.78168358
49.37541625,-2.17867913,-14.08169509,-3.072497233,14.57672867
49.38539725,-0.00505045943,-13.46927176,-4.663529289,14.25376486
49.39537725,2.737775711,-12.21798398,-5.561113729,13.70038446
49.40535825,4.476588542,-11.79882866,-6.336885465,14.12120109
49.41533925,4.86651772,-11.7416043,-6.997541896,14.50909573
49.42532025,4.005665488,-11.68318711,-6.467599971,13.94173829
49.43530125,2.453751889,-12.09162097,-4.941027619,13.29067154
49.44528225,0.6623280041,-12.4541191,-2.737597664,12.76864135
49.45526325,-0.811127948,-12.58277539,-0.7126647833,12.62901644
49.46524425,-1.757265474,-12.55525372,0.3705079427,12.68304593
49.47522525,-1.871185023,-12.2257444,0.4538064998,12.37643325
49.48520625,-1.474343852,-11.59731607,0.03254414052,11.69070096
49.49518725,-0.9454319134,-11.24934593,-0.627624633,11.3064379
49.50516825,-0.4827441508,-10.85190717,-1.361860087,10.94767528
49.51514925,0.1197251757,-10.62292436,-1.84604258,10.78279784
49.52512925,0.5980074259,-10.29448041,-2.186724753,10.54114343
49.53511025,0.3039567614,-10.26263998,-2.748990963,10.62878734
49.54509125,-0.439156301,-10.43980828,-3.456205557,11.0058081
49.55507225,-1.190347365,-10.41802623,-3.688197931,11.11552974
49.56505325,-1.879565252,-10.38397906,-3.095156363,10.99726237
49.57503425,-1.838120188,-10.34838823,-1.965461435,10.69256112
49.58501525,-1.420673429,-9.972337418,-0.8410991675,10.10807966
49.59499625,-0.8878851519,-9.336139889,-0.1660612169,9.379734773
49.60497725,-0.5378297462,-8.386456758,0.1431120649,8.404903262
49.61495825,-0.3072169862,-7.10323909,0.1768279874,7.112078176
49.62493925,0.08954246979,-5.304370092,0.412013526,5.321100926
49.63492025,0.4515693917,-2.749903421,1.264915298,3.060374888
49.64490125,0.4810112919,-0.01607224166,1.697476817,1.764385934
49.65488225,0.4225513049,3.392341683,2.046719021,3.984418458
49.66486225,-0.1555597638,7.996750944,2.885649456,8.502893466
49.67484325,-1.176945766,12.93759028,4.096098233,13.62147071
49.68482425,-1.618792005,17.54730472,6.406646841,18.75029371
49.69480525,-1.652110317,20.94260744,9.182963305,22.9270384
49.70478625,-1.687730239,23.18690212,10.31285587,25.43296796
49.71476725,-2.091585876,25.07203977,9.822197292,27.00847032
49.72474825,-2.61138259,26.40557682,7.871016512,27.67718749
49.73472925,-2.909347052,27.8887909,4.979678299,28.47887206
49.74471025,-2.218342402,28.28382177,2.815855044,28.51007991
49.75469125,-1.597496738,26.85843899,3.134250847,27.08784357
49.76467225,-1.277045347,24.43940144,4.970061969,24.97231875
49.77465325,-1.538031725,21.69022541,6.622701459,22.73085116
49.78463425,-1.642855052,18.65975387,7.790536605,20.2873815
49.79461425,-1.597840116,15.8167698,7.351363932,17.51473241
49.80459525,-1.185470933,12.97306534,5.058888191,13.97491021
49.81457625,-0.6568299403,10.29343142,2.238717902,10.55452575
49.82455725,0.2504642399,7.706765885,-0.9766357259,7.772437847
49.83453825,1.866183168,5.172542861,-3.836178095,6.704781998
49.84451925,2.65980923,2.578047321,-5.482302618,6.616385352
49.85450025,2.007955344,-0.6095482582,-6.163152409,6.510597619
49.86448125,0.0280258508,-4.012510824,-6.188834549,7.375818709
49.87446225,-2.333920659,-7.391137277,-5.357673309,9.422354228
49.88444325,-3.9954773,-10.29894183,-3.795869145,11.68078184
49.89442425,-4.366700065,-12.59403362,-2.215613068,13.51246438
49.90440525,-3.494741047,-13.88328737,-0.5904125141,14.32855436
49.91438625,-1.897184082,-14.2787638,0.235881211,14.40618072
49.92436625,0.2419041355,-13.93137487,-0.3303605215,13.93739077
49.93434725,2.016045113,-13.19249497,-2.116523666,13.51243997
49.94432825,3.035968215,-12.54697172,-4.226955119,13.58347348
49.95430925,3.585115027,-12.2266858,-5.326220552,13.80990662
49.96429025,3.689148104,-11.93318481,-4.980695715,13.44685998
49.97427125,3.470586784,-11.72761659,-4.295189202,12.9626623
49.98425225,2.806248361,-11.76403656,-3.577082707,12.61202231
49.99423325,2.102761367,-11.61671011,-2.851757825,12.14504351
50.00421425,1.790673833,-11.4172803,-2.367433391,11.79684462
50.01419525,1.672545167,-11.03625468,-2.177783922,11.37273351
