Time (s),Linear Acceleration x (m/s^2),Linear Acceleration y (m/s^2),Linear Acceleration z (m/s^2),Absolute acceleration (m/s^2)
0.12838527,2.591004848,-0.5163497925,-0.3099786043,2.660077061
0.146724437,3.593895912,-0.3966665268,0.7886557579,3.700731018
0.165063551,4.036388874,0.2915830612,1.963035822,4.497884554
0.183402718,3.90986681,0.7510070801,3.02715373,5.001472764
0.201741884,3.179895163,-0.4952697754,5.673458576,6.522664916
0.220080999,2.289291859,-2.306745529,7.190473557,7.890807444
0.238420166,1.820315719,-1.599905014,4.080890656,4.746252618
0.256759332,1.21372056,-0.2248544693,1.880879641,2.249752287
0.275098499,1.158159018,1.005860329,-0.1560304463,1.541892607
0.293424853,1.265464783,1.710757256,-1.242861629,2.464304472
0.31177678,1.159294844,1.335586548,-0.641646862,1.881347033
0.330115947,0.6519585848,0.4343910217,-0.04473260045,0.784695203
0.348455062,0.4298788607,-0.2273616791,1.108166575,1.210174503
0.366794228,0.7152602077,-0.8847236633,1.503051758,1.885072336
0.385133395,1.044846058,-1.018369675,1.788564205,2.308190199
0.403472562,1.308492661,-0.72569561,2.350528479,2.78635448
0.421811676,1.089504838,-0.3917350769,2.547450542,2.798210398
0.440150843,0.5471384525,-0.08048725128,1.935079336,2.012553284
0.458477197,0.1116648912,0.1691875458,0.8052546978,0.8303785895
0.476829124,-0.2383100986,0.3033914566,0.08527185023,0.3951067799
0.495168291,-0.2608963847,0.05721282959,0.7942063808,0.8379164677
0.513507457,-0.1789306998,-0.3467741013,1.856593966,1.897158304
0.531846624,-0.02534925938,-0.8662796021,2.689932346,2.826096064
0.550185739,0.05896162987,-1.278831482,3.054712057,3.312122006
0.568524905,-0.08053731918,-1.308775902,2.930359364,3.210356152
0.586864072,-0.3966322541,-0.9802265167,2.512321711,2.725788243
0.605203239,-0.783054173,-0.4710683823,2.127640724,2.31558509
0.623542353,-1.173792124,0.09162425995,2.166762829,2.465977314
0.64188152,-1.155583262,0.7389564514,2.496220112,2.848252826
0.660220687,-0.5569201112,1.28749752,3.141837597,3.440778017
0.678559853,0.2527034283,1.556649208,2.767382622,3.185187962
0.696898968,0.6375518441,1.491749763,1.903212309,2.500801232
0.715238134,0.5954940319,1.063254356,1.200314522,1.710519781
0.733577301,0.654176116,0.1271762848,0.4706635475,0.8158703164
0.751916468,0.4897428155,-1.02145195,0.2471551001,1.159438552
0.770255582,0.05439034104,-2.246196747,1.285017371,2.588363919
0.788581989,-0.3397839963,-3.456359863,2.721517324,4.412316083
0.806933916,-1.489450455,-2.878686905,2.929283857,4.36875324
0.825273082,-2.639032364,0.9967098236,-0.0624589026,2.821670322
0.843599437,0.6058112979,4.487699509,-5.315381527,6.982817124
0.861951364,2.807165146,6.381913185,-3.402489662,7.757959007
0.88029053,2.490193844,4.61522007,-1.941802263,5.592129979
0.898616884,1.224256754,0.617354393,-2.273364544,2.654829071
0.916968864,-0.6993385553,-1.917150974,-1.109126091,2.322649986
0.935307978,-1.968024611,-3.934470654,0.9860250354,4.508372829
0.953634384,-1.840120077,-6.406578064,2.803218365,7.231066145
0.971986312,-1.413580894,-8.017025948,4.438973904,9.272292344
0.990325478,-0.05047506094,-8.30922699,4.542773247,9.470089211
1.008651832,1.352740765,-7.459927559,2.803300858,8.083249499
1.027003759,1.650560617,-6.249853134,1.179635286,6.570886847
1.045342926,1.136384487,-4.422003746,-0.488633275,4.591758847
1.063669332,1.320647955,-1.522987366,-1.081959248,2.28784557
1.082021259,2.358790398,1.192580223,0.334788084,2.66424901
1.100360374,3.432988167,2.97174263,2.551566839,5.20837358
1.11868678,2.266353369,0.86921978,3.828535318,4.533164822
1.137038707,-0.5740004778,2.519657135,1.54010582,3.008334184
1.155377874,-1.535729885,3.928221703,-1.530223608,4.486755656
1.173704228,0.9320228696,2.256229401,1.23441577,2.735510927
1.192056155,2.594290018,2.86438179,4.502467155,5.933568422
1.210395322,2.214445829,7.767010689,6.252067566,10.21364647
1.228721728,-0.9800839424,10.65313816,5.546936035,12.05066042
1.247073655,-2.31328249,5.998569489,4.620407104,7.917213752
1.265412822,-2.247265339,5.88339138,5.375539303,8.280152078
1.283739176,-1.828047395,9.37223053,5.919527054,11.23482367
1.302091103,-1.957560658,14.11612701,5.929592133,15.4355806
1.32043027,-1.902818918,17.13640976,3.356984138,17.56549464
1.338756624,-0.2482231855,15.04105663,1.055841565,15.08011276
1.357108551,2.406825781,10.28933144,0.4929833412,10.57857194
1.375447718,4.451415062,5.765304565,-0.8118303418,7.328908602
1.393774124,4.116727352,0.97103405,-1.952878714,4.658764481
1.412126051,1.475605845,-2.95926857,-1.368667603,3.578817415
1.430465166,-0.1973617822,-7.016283989,-0.137022078,7.020396551
1.448791572,-1.495644569,-10.64488983,0.1938794851,10.75119628
1.467143499,-2.85512495,-14.17957687,1.235139966,14.51680783
1.485482666,-2.863359928,-17.84350204,2.380845785,18.22794069
1.50380902,-2.020499229,-19.38632774,0.4398406744,19.49629658
1.522160947,-0.8160538077,-18.23485947,-1.137861848,18.28854213
1.540500114,-0.2212609053,-13.63256359,-0.8362699747,13.65998148
1.55882652,-1.06070447,-9.863757133,-0.9721625447,9.968144199
1.577178447,-2.255233049,-6.384910107,-1.950026035,7.046683952
1.595517562,-2.382856131,-4.582136154,-1.724360704,5.444942141
1.613843968,-0.8336577415,-4.779065132,-0.2774473131,4.859158958
1.632195895,0.7476184368,-6.551939011,0.4182091057,6.607702852
1.650535062,1.03311038,-8.831326485,1.146548033,8.965166866
1.668861416,0.6991268396,-10.74420547,1.762627363,10.91025136
1.687213343,0.1241582632,-11.52309704,2.090765715,11.71189489
1.705552509,-0.8843886852,-9.561515808,1.372533679,9.699926628
1.723878864,-1.296733975,-6.090493202,-0.5670602918,6.25277409
1.742230843,-0.09872002155,-1.40279007,-2.238485813,2.64355525
1.760569957,2.581742048,9.089089394,2.062111616,9.671051769
1.778896364,5.590741634,32.70259094,8.059566498,34.14194573
1.797248291,-1.378852487,26.00870323,12.52886868,28.90201426
1.815587457,-6.850252151,5.726186752,3.509668827,9.593380246
1.833913812,-4.681815147,5.814201355,-0.4361740351,7.477605115
1.852265739,-0.006855964661,18.73700333,2.552895069,18.91011935
1.870604905,3.754518509,20.76295853,6.336820602,22.03070928
1.888931259,4.706512451,16.9020462,5.447981834,18.37147058
1.907283187,0.9556429386,15.42730808,6.592443466,16.80402925
1.925622353,-1.762424946,12.56731796,5.55027771,13.85096405
1.943948707,-1.642271638,7.373029709,1.779039025,7.760386786
1.962300634,-0.5336092114,4.012631416,-2.803351879,4.92389393
1.980639801,0.2022000849,0.566655159,-2.481834888,2.553720297
1.998966155,-0.6133060455,-3.353156567,-1.251993179,3.631430873
2.017318134,-0.8334778547,-7.623492718,0.5193165541,7.686482696
2.035657249,-1.044718146,-11.36734772,2.804011822,11.75459537
2.053983655,-1.287324548,-15.3736248,4.294947624,16.01412249
2.072335582,-2.270480156,-17.85416603,2.699719906,18.19930802
2.090674697,-3.452530384,-18.57474327,-0.451607585,18.89828043
2.109001103,-3.044957399,-16.81861305,-2.199004412,17.23290837
2.12735303,-1.411396027,-12.9974947,-2.139620304,13.24782557
2.145692145,-0.4211398959,-9.631915092,-1.350665212,9.735268033
2.164018551,0.3805708885,-7.205735207,-0.9187656641,7.274034947
2.182370478,1.024832487,-5.850375175,-0.4008916616,5.952972824
2.200709645,0.8400315046,-5.406427383,0.04733023047,5.471503462
2.219048759,0.2970964015,-6.223767281,-0.2001158893,6.234067036
2.237387926,-0.7450524569,-7.132681847,0.3651181459,7.180777447
2.255727093,-1.466439247,-8.147533417,0.6982801557,8.307848098
2.274053447,-2.114558458,-8.527967453,-0.3012760878,8.791379507
2.292405374,-2.732722998,-6.678160667,-1.468894005,7.363644103
2.310744541,-1.809445143,-3.394959927,-1.739473104,4.222038762
2.329070895,0.6044409275,-0.7254362106,0.1168355942,0.9514499916
2.347422822,3.033624649,4.583667755,1.48708725,5.694235426
2.365761989,4.019021988,22.25253677,5.457948685,23.26192456
2.384088343,-2.097119808,34.93249512,11.84238338,36.9448125
2.40244027,-5.140582085,16.11608505,6.355675697,18.0706501
2.420779437,-5.31687212,9.925877571,3.817869425,11.88984027
2.439105791,-4.248823166,18.20969391,5.610571384,19.52239642
2.457457718,0.8729774952,20.90031815,6.052093983,21.77643749
2.475796884,3.624461412,16.9202404,5.327520847,18.10562714
2.494123239,4.411074162,13.63278961,-0.3863705397,14.33386933
2.512475166,2.606787205,12.62247086,-4.711537361,13.72299874
2.530814332,-0.1351961195,8.023891449,-2.782011032,8.493567999
2.549140687,-1.635981083,2.212578773,-1.149702311,2.982239819
2.567492614,-2.949188948,-2.609470844,1.685988188,4.283644442
2.58583178,-3.426992893,-8.716584206,5.654473782,10.94057559
2.604158134,-2.312495232,-15.10395718,8.781543732,17.62363943
2.622510062,-1.7986238,-19.43168449,8.493215561,21.28285978
2.640849228,-2.824662209,-21.28871918,3.688066483,21.7896791
2.659175582,-3.08596611,-21.92189026,-2.816272259,22.31644794
2.677527509,-2.393424511,-18.07356262,-4.191038609,18.7068691
2.695866676,-0.9510126114,-12.34718513,-2.73295784,12.68173743
2.71419303,-0.7377228737,-9.186883926,-1.422948122,9.325655616
2.732544957,-1.185852408,-5.22655201,-0.6433340311,5.397867219
2.750884124,-1.492761731,-1.616936684,0.2792039216,2.218282366
2.769210478,-0.4215574861,-2.119761944,0.3059599698,2.182822236
2.787562405,0.3820673823,-4.931811333,-0.48217538,4.97003336
2.805901572,-0.1083322763,-6.847277641,0.1691113561,6.850222305
2.824227926,-0.2549055815,-8.752737999,0.438246727,8.76740894
2.842579853,-0.001807510853,-11.21862507,-0.4043256342,11.22590891
2.860918968,-0.1502272189,-12.41124916,-0.1534345448,12.41310663
2.879245374,-0.4937215447,-9.590517044,-0.2969535887,9.60780722
2.897597301,-0.6757645011,-5.490784645,-1.777044535,5.810616229
2.915936416,-1.845438242,2.305746078,1.562000871,3.340951063
2.934262822,1.41626513,34.15644455,7.328395367,34.96246401
2.952614697,2.732535601,44.13272858,9.255169868,45.17546515
2.970953864,-2.74324584,13.03122616,10.64171696,17.04653609
2.98928027,-4.699808121,1.237234116,12.41871929,13.33579894
3.007632145,-2.485458851,11.20827103,4.914078236,12.48803467
3.025971312,0.07987934351,23.17453384,2.767202377,23.33929752
3.044297666,1.515340447,23.7625618,0.3219457865,23.81300588
3.062649593,1.46179831,17.5134697,1.526923537,17.64057739
3.080988759,0.07336476445,11.12509251,0.9589672089,11.16658783
3.099315114,0.01504045725,5.806080818,0.4346575439,5.822347281
3.117667041,-0.287504971,1.511582375,1.468450308,2.126943039
3.136006207,-0.6283550262,-2.643332481,2.520961285,3.706384012
3.154332562,-0.8772884607,-7.568098545,2.750882149,8.100191555
3.172684489,-1.082217216,-12.49092484,4.185650349,13.21794485
3.191023603,-1.563757539,-16.68332291,4.62511301,17.38304551
3.209350009,-3.241691589,-18.41011429,3.34450531,18.99017083
3.227701937,-5.130564213,-17.98049736,-0.858482182,18.71785154
3.246041051,-4.984964848,-15.68104172,-3.856510878,16.90022544
3.264367405,-2.878479242,-12.4516468,-3.448581696,13.23713967
3.282719332,-0.7732036114,-9.647292137,-2.076643705,9.898511933
3.301058499,0.3001481295,-7.487258911,0.003890730441,7.493273653
3.319384853,0.830902338,-6.404672623,1.964486241,6.75051378
3.33773678,0.4796136022,-6.723082066,2.466250658,7.177203771
3.356075947,-0.9116541147,-6.919445038,1.216603518,7.084487065
3.374415062,-1.917402983,-7.642303467,0.9226105809,7.932997338
3.392754228,-2.112361431,-9.015133858,1.765169144,9.426055983
3.411093395,-1.974058867,-10.88325214,1.338795185,11.14156444
3.429432509,-1.831068516,-10.30933762,-0.02984660864,10.470728
3.447771676,-1.86517787,-6.774447441,-1.856675029,7.267686618
3.466110791,0.04819758981,-3.717366219,-2.569658041,4.519322633
3.484437145,1.543417573,0.6970682144,1.09614706,2.017320073
3.502789072,3.991686106,15.6447773,5.190546513,16.95978737
3.521128239,5.78216362,41.79888916,9.403068542,43.23191239
3.539454593,-1.667751551,18.43541336,9.135432243,20.64223785
3.55780652,-6.608698368,3.402533531,8.793361664,11.51413644
3.576145634,-7.828661919,10.13992214,5.4362216,13.9161228
3.594472041,-5.043810844,27.9116745,2.848004341,28.50636297
3.612823968,-1.012399554,23.44327927,2.955814362,23.65056308
3.631163082,2.257963181,12.01641083,3.715941668,12.77891816
3.649489437,4.461686134,12.35843182,1.654443622,13.24290995
3.667841364,3.719914913,11.40869045,-2.431562662,12.24371193
3.68618053,-0.2102475315,6.901445389,-0.914357543,6.964926575
3.704506884,-1.706236482,1.376210213,0.9455533028,2.387314083
3.722858812,-2.095351219,-3.853178024,2.291417599,4.948542435
3.741197926,-2.031796932,-8.586204529,3.81027174,9.6108937
3.759524332,-1.417434096,-13.01393223,5.028953075,14.02362009
3.777876207,-1.816506028,-16.52716827,3.791057587,17.0534191
3.796215374,-3.657617092,-17.77249146,0.04435178638,18.14501536
3.814541728,-5.42175293,-16.64253807,-4.527943611,18.0795949
3.832893655,-4.526360512,-14.14669991,-4.205663204,15.43711957
3.851232822,-1.908168793,-12.22473812,-1.889318347,12.51618369
3.869559176,-0.2105610371,-10.01898003,0.6993309855,10.04556422
3.887911103,0.9389795065,-7.78131485,2.26982069,8.159817968
3.906250218,1.027689219,-5.975482941,1.261451602,6.193044619
3.924576572,0.1136694551,-5.501444817,-1.379132271,5.672814261
3.942928499,-0.8609452248,-6.221284866,-1.032918572,6.364945628
3.961267666,-1.470615625,-7.857322693,0.4880724549,8.008648134
3.97959402,-2.429082394,-9.677941322,2.411731005,10.26544865
3.997945947,-2.639332056,-10.89771557,2.717440128,11.53736361
4.016285062,-1.614096642,-9.643760681,-0.3617913425,9.784596109
4.034611416,-0.4293780029,-6.495559692,-2.230181694,6.881160627
4.052963343,0.4549192786,-1.651374817,0.1194665432,1.71705055
4.071302509,3.265057564,6.038964272,3.183962822,7.567516741
4.089628864,5.823143482,22.76571655,4.542681694,23.93371695
4.107980791,-1.24630475,28.3493309,11.10332203,30.47165237
4.126319905,-7.219766617,16.29696655,12.44771767,21.7407871
4.144646259,-9.252130508,13.13486385,4.443831444,16.66955924
4.162998187,-6.374103069,20.2018013,0.9781581163,21.20610193
4.181337353,0.5316596031,21.32061005,-0.2250247598,21.32842495
4.199663707,5.24998951,14.76063347,3.374304295,16.02574865
4.218015634,6.236768246,12.34836769,2.677200794,14.09066595
4.236354749,3.61402607,11.07748795,1.383979201,11.73402412
4.254681103,-0.2201473415,7.312596321,0.8679244518,7.367212679
4.27303303,-1.948830128,1.864215851,-1.006225824,2.878494401
4.291372197,-2.734714031,-3.423530102,-0.1860468239,4.385639362
4.309698551,-1.724721789,-8.900797844,1.0792799,9.130373082
4.328050478,-0.05850249529,-13.08709431,2.482419252,13.32058052
4.346389593,0.3399634361,-16.12187576,3.180672407,16.43615315
4.364715947,-1.231234908,-17.39074707,2.166934013,17.56842697
4.383067874,-3.458093882,-15.88383102,-2.020561218,16.38100024
4.401406989,-3.611824989,-13.62423706,-3.117037296,14.43540913
4.419733395,-2.872324467,-11.56685352,-1.401815057,12.00030973
4.43808527,-2.201488495,-10.26739311,0.1124505699,10.50135982
4.456424437,-0.4263357818,-8.583456993,1.23709929,8.682621194
4.474750791,1.242730498,-6.073237419,1.556500435,6.391501032
4.493102718,2.118075371,-4.751473904,0.03920089453,5.202334499
4.511441832,1.708365679,-5.987225533,-1.152887821,6.332024415
4.529768187,-0.002160191536,-8.152240753,-1.385599017,8.269154648
4.548120114,-1.778802156,-10.88387394,-0.5559253693,11.04227794
4.566459228,-4.58767271,-11.71817112,1.489448547,12.67204531
4.584785582,-5.285469532,-10.78822803,0.4957078695,12.02363417
4.603137509,-3.56409812,-6.349849701,-2.352986813,7.652446248
4.621476676,-0.6518992186,-0.1846313477,-2.822199345,2.902390475
4.63980303,2.610848427,12.07832432,2.987935305,12.71338685
4.658154957,7.334016323,36.75681305,5.611607552,37.89909287
4.676494072,2.684657574,22.14856339,3.064733982,22.5201874
4.694820426,-1.031760335,9.736769676,6.761223316,11.89888036
4.713172353,-4.56524229,13.08778477,9.326203346,16.70657404
4.731511468,-4.21400547,23.3526001,9.800030708,25.67376823
4.749837822,-2.343766451,22.1337204,4.439822197,22.6959653
4.768189749,0.4443916678,14.6642704,3.754246473,15.14373392
4.786528916,2.273100376,13.18628883,2.406713009,13.59549433
4.80485527,2.950351238,11.25854301,0.3098798394,11.64282563
4.823207145,1.602022767,6.212809563,1.576384187,6.606849984
4.841546312,-0.7722499967,1.063766479,1.127058506,1.731539793
4.859872666,-1.981374979,-3.740430832,1.246160865,4.412435441
4.878224593,-1.680239558,-8.80654335,1.169244409,9.041324197
4.896563707,-1.210534215,-12.98851681,0.8080644608,13.06980987
4.914890062,-1.627510548,-16.23597717,1.277602673,16.36728487
4.933241989,-2.287761927,-17.54972458,0.5593193769,17.70704734
4.951581103,-1.514421225,-16.88032722,-1.31178689,16.99881477
4.969907457,0.1552978158,-14.44770432,-2.633406639,14.68656215
4.988259384,0.6754767299,-11.69218063,-1.594010353,11.81965422
5.006598499,0.3255645037,-9.835158348,-0.9413985014,9.885472326
10.03151199,-1.924229741,-11.89885902,0.2666341066,12.05639249
10.04986392,-2.925860882,-12.85918617,0.4648315907,13.19603726
10.06820308,-2.631776571,-12.07475758,-0.2112599611,12.36004244
10.08652944,-1.804273129,-7.650360584,-1.235718012,7.956784375
10.10488136,-0.2103870511,-2.708971977,-2.460892677,3.665894796
10.12322053,-0.2210949063,7.015827179,1.32439816,7.143160676
10.14154694,3.89241457,35.26020813,4.842386246,35.80337796
10.15989886,3.16472578,27.15652084,5.002616882,27.79421323
10.17823803,-4.004806995,1.34616375,4.277492523,6.012285605
10.19656438,-2.53390193,3.873497963,2.443754911,5.234174579
10.21491631,-0.2686810493,16.75628281,8.009116173,18.57393725
10.23325548,0.3295244575,21.54921722,10.87063789,24.13810509
10.25158188,-0.930153966,15.62009811,9.118607521,18.11081596
10.26993381,-3.023031235,14.97684002,2.973426342,15.56552983
10.28827298,-3.546119213,14.95928478,-0.074395895,15.37402671
10.30659933,-1.315569878,13.61102009,0.1841064692,13.67568964
10.32495126,0.4979963899,10.61727715,1.168309689,10.692966
10.34329043,1.732704759,6.558927536,-0.01515650749,6.783953561
10.36161683,1.831516266,2.370247841,-0.5773512721,3.050550959
10.37996876,1.323449731,-1.561314583,0.1139005423,2.049925791
10.39830793,0.9817959666,-5.743077755,1.030431628,5.916811199
10.41663428,0.7834153771,-10.18576717,1.816690207,10.37612432
10.43498621,-0.2346031368,-14.08084583,1.956412077,14.21804509
10.45332537,-2.236425877,-16.83157921,1.237101316,17.02451406
10.47165178,-4.474446774,-18.28184891,-1.138905406,18.85586855
10.49000371,-4.827005386,-16.18977356,-4.397556305,17.4570115
10.50834287,-2.765986204,-12.61300659,-3.81811142,13.46538487
10.52666923,-1.79059732,-10.91269493,-1.801977873,11.20447561
10.54502116,-0.9734767675,-8.806750298,-0.2434463501,8.863733635
10.56336032,0.7676631212,-6.965601444,1.487054825,7.16381478
10.58168673,2.0876019,-5.198990822,-0.8250815272,5.662892087
10.60003866,2.08027935,-4.657461166,-2.658911228,5.75233132
10.61837782,1.080527306,-6.439042091,-2.188226938,6.886010416
10.63670418,0.1235342026,-9.068249702,-1.554256082,9.201311066
10.6550561,-1.329923391,-11.73505402,-0.8935530186,11.84392781
10.67339527,-3.399352074,-12.56087112,0.1667323112,13.01379566
10.69173444,-2.676141024,-11.2500267,-0.2371156216,11.56637607
10.7100736,-1.303392172,-7.701124191,-1.712573767,7.99618996
10.72841277,0.1010568738,-1.881839275,-1.346487999,2.316152301
10.74673912,0.8824099898,11.38044453,1.943072081,11.57880366
10.76509105,5.145280838,35.23428345,0.3748075962,35.60995824
10.78343022,1.348973036,15.42671013,2.99139142,15.771859
10.80175657,-1.880421638,-1.029974937,6.720427513,7.054146289
10.82010855,0.6209785938,6.576040268,7.228598118,9.791963581
10.83844767,-1.191078424,19.31355286,9.824439049,21.70141918
10.85677407,-4.275763512,19.17098808,9.061508179,21.63145553
10.875126,-3.775128603,12.97523785,5.114484787,14.448749
10.89346517,-2.569938183,14.25114441,5.368990898,15.44427928
10.91179152,-1.498328209,15.41137218,4.515316963,16.12896362
10.9301435,-0.9737889171,14.93741703,1.929718494,15.09299526
10.94848261,-0.6196360588,12.54352951,-0.5005850792,12.56879735
10.96680902,-0.4401534796,8.594594955,-0.2236076593,8.608762856
10.98516095,0.1284606606,4.497778893,-0.6609568,4.547898526
11.00350011,1.020691276,0.309879303,-0.1145809889,1.072830213
11.02182647,1.283612967,-4.127279282,0.526597321,4.354239458
11.0401784,1.411567926,-9.084644318,1.268804073,9.280794695
11.05851756,1.194151402,-13.73404121,0.8140202761,13.80987019
11.07684397,-0.2762136459,-16.57934189,-0.08770871162,16.58187457
11.0951959,-2.711541653,-17.81732368,-1.040734649,18.05249595
11.11353506,-4.24064827,-16.61246109,-3.730080605,17.54623785
11.13186142,-2.204161167,-13.19427109,-4.487015724,14.10958632
11.15021334,-0.5958789587,-10.84726524,-2.90205431,11.24456109
11.16855251,0.1779845953,-9.003218651,-1.555592775,9.138352886
11.18687892,0.925298214,-7.060747623,1.172014236,7.216921169
11.20523084,1.838026881,-5.960906029,1.437443495,6.401326995
11.22357001,2.545215368,-5.398478031,-0.4389488697,5.984510208
11.24190912,1.834222078,-6.510882378,-0.6194423437,6.792618699
11.26024829,-0.349789232,-8.846418381,-0.8248484135,8.891672822
11.27858746,-4.255784988,-11.33960342,-0.4191035628,12.11915671
11.29691381,-5.916822433,-12.40793324,-1.40918541,13.8185165
11.31526579,-4.611573696,-12.8406477,-1.153459787,13.6923086
11.33360491,-3.698407888,-11.50227737,-0.3245754242,12.08660229
11.35193131,-3.412350416,-6.802366257,-0.9383039474,7.667902996
11.37028324,-0.3739337921,-0.06875133514,-4.37060833,4.387114131
11.38862241,2.637188911,13.28734112,1.012620211,13.58431445
11.40694876,7.589421272,41.05516815,4.423239708,41.98441612
11.42530069,-0.02632856369,19.24687004,1.850800991,19.33567076
11.44363985,-1.232358336,0.2101449966,-1.238587976,1.759820491
11.46196626,-0.2673375607,6.241885185,4.368883133,7.62363036
11.48031819,3.535755157,9.939559937,9.500804901,14.19724304
11.49865735,1.938301325,12.70362759,12.0069828,17.58712034
11.51698371,-0.7674412727,15.59990883,9.324199677,18.1902947
11.53533563,-4.951004982,16.88047218,3.864051342,18.01093235
11.5536748,-5.315311909,14.88305378,2.196733475,15.95567198
11.57200121,-2.881266117,11.84283447,2.797881126,12.50530134
11.59035313,-0.8897532821,10.63537693,2.753018141,11.02188787
11.6086923,-0.237208128,9.819705963,1.201085448,9.89573136
11.62701866,0.433363229,7.140767097,-0.5623406768,7.175972789
11.64537058,1.612464428,2.395243645,-1.11198163,3.094145568
11.66370975,1.977637768,-1.697669029,-0.4039531946,2.637481651
11.68203616,1.464146733,-5.784282684,-0.5849676132,5.995318085
11.70038808,1.105865002,-10.69886017,-0.487621814,10.76690863
11.7187272,0.1854320467,-14.98936749,-0.02029144764,14.99052816
11.7370536,-1.598014355,-17.50607872,0.3940113783,17.58327862
11.75540553,-2.951001883,-17.78093529,0.1025646925,18.02444427
11.7737447,-1.990947127,-15.38397789,-2.120559692,15.65654558
11.79207105,-0.7706380486,-12.42068005,-3.053283691,12.81365354
11.81042303,-0.9155243635,-10.60466099,-2.639200211,10.96642135
11.82876214,-0.8434169888,-8.685675621,-2.201271534,8.999883865
11.84708855,0.05499417335,-6.204738617,-0.01126241684,6.204992547
11.86544048,1.211066127,-3.586210251,-0.1145404577,3.786912284
11.88377964,1.388571024,-4.539580345,-2.199447393,5.231967893
11.902106,1.077376962,-7.392833233,-2.183480263,7.783463907
11.92045798,-0.03886321187,-10.61400318,-0.9284344912,10.65460297
11.93879709,-2.439707041,-12.68957901,0.4914696217,12.93132353
11.9571235,-3.102785587,-13.24608803,0.8200848103,13.62933107
11.97547543,-2.499593258,-12.20690346,0.4130874872,12.46704054
11.99381459,-2.105560303,-7.877532959,-0.4371362925,8.165782133
12.01214095,0.3637831807,-1.704392433,-1.714821458,2.444975338
12.03049293,2.487998009,8.878347397,-0.8476030827,9.259244979
12.04883204,6.877249241,40.97937775,3.441143513,41.69469302
12.06715845,-1.180241823,26.09284019,0.1668643951,26.12005214
12.08551037,-4.428380013,0.3731737137,3.007003784,5.365806548
12.10384954,1.125451565,5.308948517,4.925748825,7.329022927
12.12217595,2.225815535,17.70354652,10.78139305,20.84726002
12.14052787,0.2206788063,24.90912056,12.03149414,27.66351094
12.15886704,-0.9928076267,21.0376091,5.654450417,21.80686757
12.1771934,-2.182808876,17.74564743,1.010679007,17.90793482
12.19554532,-2.809722662,16.65252686,-1.932712555,16.99813431
12.21388449,-2.123666763,13.39766121,-3.546723843,14.02093208
12.2322109,-0.5005216002,8.170171738,-3.739649773,8.999289334
12.25056282,0.1472132802,2.244860649,-2.194086552,3.142465096
12.26890199,0.7228609324,-2.873894215,-0.2979486883,2.978350098
12.28722834,2.158943892,-8.028970718,3.526773453,9.03125354
12.30558032,2.895780563,-13.20481586,6.281428814,14.9066782
12.32391949,1.587806225,-16.48016357,6.398417473,17.74983567
12.34224584,-1.828075171,-17.12254524,3.77473259,17.62872714
12.36059777,-4.455684185,-17.33182907,-1.246653438,17.93877268
12.37893694,-4.027590752,-16.20290375,-4.762871265,17.3620425
12.39726334,-2.359837532,-12.52102566,-5.036843777,13.70090187
12.41561527,-1.00881958,-9.498085022,-4.645543098,10.6213185
12.43395444,0.4720277786,-7.165760994,-3.541314125,8.00698736
12.45228079,1.8267169,-5.301568985,-2.101317883,5.988243914
12.47063277,2.160203218,-5.03778553,0.708114624,5.526950996
12.48897188,0.9470802546,-6.014592171,2.086516857,6.436290281
12.50731105,-0.2662039399,-7.174197197,0.2587952614,7.18379739
12.52565022,-0.01380829886,-8.913696289,-1.493842363,9.038016221
12.54398938,0.7375104427,-10.57548046,-3.312063456,11.10650588
12.56231579,1.457320452,-11.6178503,-3.939218521,12.35377153
12.58066772,2.00548768,-12.03925705,-2.959086895,12.55873745
12.59900688,1.627930403,-10.30403423,-1.173549056,10.49764241
12.61733324,-0.8891839981,-6.970716476,2.879044056,7.59410502
12.63568522,-3.596534729,-1.388579369,5.087086201,6.382919452
12.65402438,0.412938118,7.758075714,2.430871725,8.140478734
12.67235074,4.781635761,34.6307373,3.883593798,35.17434161
12.69070267,-7.392840862,32.90037537,2.316048145,33.80019045
12.70904183,-8.909908295,4.671064377,-7.986270905,12.84468105
12.72736824,2.436176777,5.150360107,3.156117678,6.513236163
12.74572017,2.997824192,15.92666149,3.292274237,16.53736877
12.76405933,1.721455216,22.77694893,13.94983578,26.76472919
12.78238574,0.914599061,14.2137394,19.4235878,24.08615042
12.80073767,-0.8902094364,14.64796829,10.25251389,17.90166162
12.81907683,-2.641682625,16.08992004,1.875062943,16.41279608
12.83740319,-3.773994684,14.29279327,-7.987389565,16.80254051
12.85575517,-2.007899046,12.21854496,-3.509522438,12.87016889
12.87409433,-0.648686111,7.108430862,-1.690265656,7.335365089
12.89242069,-0.5746876597,2.246168137,-1.403344154,2.710149815
12.91077261,-0.3692390919,-1.633491516,0.3576206565,1.712461554
12.92911178,0.484400928,-6.15190506,4.718308449,7.768076644
12.94743819,1.453206778,-11.8412199,6.408038139,13.54212877
12.96579011,0.6669388413,-15.63056564,2.842475653,15.90091373
12.98412928,-1.446707606,-17.59484482,-0.6694743633,17.6669104
13.00245569,-2.909251213,-16.88549042,-4.445492744,17.70158001
13.02080761,-1.860300541,-14.35244465,-5.129103661,15.35451366
13.03914678,-0.05804795027,-12.39686584,-4.021997929,13.03311627
13.05747313,1.402872443,-10.81401253,-2.890096664,11.28111594
13.07582511,1.809539795,-8.794494629,-0.6646341681,9.003294321
13.09416423,1.778743148,-7.009620667,0.6671978235,7.262496954
13.11249063,0.8349888325,-6.142615318,0.4331535101,6.214221694
13.13084256,-0.157031849,-6.73090601,-0.779189527,6.777675931
13.14918173,-0.884660542,-7.948105812,-0.6382446289,8.022615938
13.16750813,-1.5439744,-9.60210228,-0.297134161,9.729980156
13.18586006,-1.789415717,-10.94488621,-0.3932920694,11.09717177
13.20419923,-1.010110378,-11.64917564,-1.190631032,11.75334924
13.2225384,-0.449036777,-12.00906849,-0.8499335051,12.04747886
13.24087756,-0.8327234387,-9.984114647,-0.6472206116,10.03966474
13.25921673,-1.908964038,-5.877282143,-1.209939957,6.296867775
13.27754308,-1.939642906,1.343783379,-2.97136116,3.794332025
13.29589506,0.5952801704,17.46524429,0.8749167919,17.49727396
13.31423423,4.489236832,39.53987503,3.461582661,39.94418004
13.33256058,-2.061198473,12.34140205,3.507311583,12.99461344
13.35091251,-4.349202633,0.4893770218,3.525021791,5.619682557
13.36925168,-2.719331264,9.582544327,6.724542618,12.01829404
13.38757808,-0.3920595646,16.52838516,8.994897842,18.82151466
13.40593001,0.9252338409,17.0758419,8.559915543,19.12361337
13.42426918,0.141502142,16.29206276,8.074474335,18.18374185
13.44259558,-2.558484077,16.03408051,6.27905035,17.40873493
13.46094751,-3.30243206,16.04273987,1.749941349,16.47233604
13.47928668,-2.660662174,13.66083908,-0.7184840441,13.93606354
13.49761308,-1.027526617,10.83941841,-1.118445516,10.94530597
13.51596501,1.161724687,7.607624054,-1.914691806,7.930421975
13.53430418,2.336612463,3.666516304,-1.329991221,4.546644505
13.55263053,1.779277563,-0.6104202271,-0.1609412432,1.887946923
13.57098251,0.9290556908,-5.317691326,0.7319773436,5.447639521
13.58932168,0.4804203212,-10.33145428,1.351651549,10.43056629
13.60764803,-0.9378120899,-14.22644901,0.4590300322,14.26471351
13.62599996,-3.210851431,-17.24271774,-0.3333976269,17.54229278
13.64433912,-4.756034851,-19.64898682,-2.452389717,20.36459589
13.66266553,-2.933490753,-16.91628265,-3.712694168,17.56559378
13.68101746,-0.8417868614,-13.91936207,-1.82224977,14.06335094
13.69935662,-0.1207520664,-11.49609566,-0.3567978144,11.50226504
13.71768303,0.3169572949,-8.176795959,-0.06444346905,8.183190518
13.73603496,0.7253502607,-4.596783638,-2.597598553,5.329546984
13.75437412,0.4690680802,-1.673011303,-3.440133572,3.854025256
13.77271329,0.06151977181,-4.047433853,-1.752939582,4.411156612
13.79105246,-0.1699753404,-7.967198372,-0.6305166483,7.993915984
13.80939162,-0.6032259464,-11.30217648,-0.4249161482,11.32623628
13.82771798,-1.489891291,-12.49644375,-1.536949039,12.67845001
13.84606996,-1.685860515,-11.70055485,-3.422632456,12.30688922
13.86440912,-0.07105095685,-10.56149292,-2.938305378,10.96283811
13.88273548,2.003594398,-9.345741272,-0.5162433386,9.572031008
13.9010874,2.487879753,-6.969725609,0.6299084425,7.427207105
13.91942657,1.531953335,-1.430685043,-0.6358276606,2.190437748
13.93775298,4.285642624,15.89175797,-0.4555424452,16.46578947
13.9561049,6.639942169,33.33505249,3.188143492,34.13910976
13.97444407,-2.975032568,11.94315529,4.66737175,13.1633634
13.99277048,-3.966156483,7.544663429,8.14215374,11.78757868
14.0111224,-6.086117744,15.54315853,11.40744686,20.21782506
14.02946157,-5.098818302,25.16418076,10.70225716,27.81676202
14.04778798,0.2950658202,21.55130768,7.607922554,22.85664919
14.0661399,0.4842876494,16.27285004,3.964733839,16.75587352
14.08447907,0.3172311485,18.24440575,-1.078595996,18.27901381
14.10280548,0.9956234694,17.78770065,-0.2618221045,17.81746647
14.12115741,1.087293386,12.94829082,0.2832862139,12.99694938
14.13949657,0.7206833363,5.787390709,1.059707761,5.92758435
14.15782293,-0.5897169113,-0.713850975,1.286253929,1.584865427
14.17617491,-0.9992396832,-5.700613976,0.7301573753,5.833404618
14.19451402,-0.9170401692,-10.11924458,-0.07866084576,10.16101673
14.21284043,-2.588261604,-12.62626457,-2.402420759,13.11080778
14.23119235,-4.995613098,-16.12184906,-4.883935452,17.57051487
14.24953152,-7.066477776,-20.14790726,-3.553534508,21.64488121
14.26785793,-4.493199348,-18.09269333,0.5817754269,18.65134995
14.28620985,1.431344986,-13.53209305,0.5003113747,13.6167765
14.30454902,3.412122726,-10.33945084,0.5427941084,10.90144259
14.32287543,2.348459244,-7.515855789,0.7543996572,7.910276095
14.34122735,0.4364430308,-5.059048653,-0.1455119848,5.079924165
14.35956652,-0.2596060634,-4.079977512,-3.802520275,5.583258211
14.37790569,-0.2281871736,-5.232703686,-4.60078907,6.971407126
14.39624485,-0.02324694395,-6.721936226,-1.611427426,6.912428328
14.41458402,-0.2880753279,-8.725153923,0.6398482323,8.753325319
14.43291037,-1.353356004,-10.54735565,1.300323963,10.71303534
14.45126235,-1.608458281,-12.4261713,-0.7034540176,12.54957046
14.46960152,-0.9667825699,-13.75725746,-2.516340733,14.018872
14.48794069,-0.2228173763,-13.10548496,-1.584996104,13.20286319
14.50627985,-0.09219494462,-10.92486763,-0.852280736,10.95844948
14.52461902,-0.5758832097,-7.300638199,-0.05477666855,7.323521016
14.54294537,-0.2734293938,-2.327569008,0.3153989315,2.364702435
14.5612973,1.407931328,9.86359787,1.243240595,10.04084064
14.57963647,3.228690863,43.51916885,6.114673615,44.06508522
14.59796287,-5.349864006,23.44635963,4.311266899,24.43235247
14.6163148,-5.869356155,1.98933506,0.220818758,6.201254436
14.63465397,-0.7979969978,13.65027809,5.368893623,14.68985738
14.65298037,0.6438482404,23.75478363,13.07008362,27.12068162
14.6713323,0.171569407,19.54880524,12.11289024,22.9979854
14.68967147,0.4463579655,14.9564991,5.204116821,15.84231462
14.70799787,1.191524506,16.06221008,1.045673847,16.1402527
14.7263498,2.167626619,16.84007645,-0.0689163208,16.97914984
14.74468897,1.928070426,13.41021824,0.05659246445,13.54823278
14.76301537,-0.1547131389,8.722260475,0.8745065928,8.767355686
14.7813673,-1.563156605,3.522353172,0.2626377344,3.862565083
14.79970647,-1.314089417,-0.8852329254,0.3950525522,1.6329528
14.81803282,-1.121453762,-5.409768581,1.145780206,5.642345871
14.8363848,-0.9378407001,-10.94306564,1.179790139,11.046363
14.85472397,-2.150456429,-14.97950268,-0.2736719251,15.13554953
14.87305032,-5.087095261,-16.38700867,-1.803293467,17.25295507
14.89140225,-7.04035902,-17.42342758,-3.311725616,19.08166687
14.90974147,-5.632751465,-15.77078247,-4.589103699,17.36390917
14.92806782,-1.26349175,-11.68266487,-3.990274906,12.40980917
14.94641975,1.338135242,-9.872495651,-2.139952898,10.19000367
14.96475892,3.636183739,-8.890453339,-0.4088929892,9.614009893
14.98308532,4.466754436,-8.064287186,1.209253907,9.297683476
15.00143725,2.874809742,-7.365345955,1.564818501,8.059870286
15.01977642,-0.1751599312,-6.731970787,-2.776334286,7.284102123
20.04469813,-1.629579544,-10.19460583,-3.518944025,10.90726751
20.06305006,1.427125812,-8.844597816,0.4470142126,8.970140485
20.08138928,2.747306347,-7.309244633,1.644145489,7.979722029
20.09971569,3.03884697,-5.435211182,-0.05603551865,6.227298891
20.11806761,1.821842909,-6.143998146,-1.636507988,6.614074629
20.13640678,-0.6493650675,-7.704472542,-2.846792221,8.239223148
20.15473319,-2.238330364,-8.881843567,-3.631892681,9.853319868
20.17308517,-3.66582942,-9.541464806,-2.996925592,10.65173314
20.19142433,-4.288359165,-10.28911209,-3.022863865,11.54961289
20.20975074,-2.36095953,-11.54516411,-2.497044563,12.04575343
20.22810272,0.4003304243,-12.56577206,-0.6526993513,12.58907893
20.24644188,1.287793159,-11.88419342,0.4941158295,11.96397154
20.26476829,-0.08376377076,-7.812857151,-0.2323198318,7.816759286
20.28312022,-0.05938339233,-2.52739954,-5.360429764,5.926675466
20.30145944,0.2980642319,12.79482746,-5.166641235,13.80183443
20.31978584,3.190627813,45.41844559,1.983985186,45.57358339
20.33813777,-0.1926051974,17.76075554,0.5664277077,17.77082931
20.35648552,-1.42449069,-5.367083549,7.139837265,9.045000593
20.37481192,0.0377022028,-2.659213543,14.09022236,14.33900988
20.39316385,-1.558452368,9.251058578,9.508662224,13.35760143
20.41150307,-2.679709435,16.26111221,2.041562319,16.60640207
20.42982948,-0.09390246868,15.39734173,1.412999868,15.46232578
20.44817834,0.5697763562,12.89736843,6.686369896,14.53871727
20.46651751,0.004668951035,12.76873398,11.36140251,17.09157852
20.48484391,-1.307640553,12.99532032,9.046722412,15.88809178
20.50319589,-2.59676075,14.58962536,3.559546709,15.24043002
20.52153506,-2.619089842,14.42252064,-2.362213612,14.84751785
20.53986146,-0.3321583867,12.70734501,-3.524983883,13.19137816
20.55821344,2.229578972,9.662046432,-1.458917379,10.0227044
20.57655261,2.219395638,5.278661728,-2.082992315,6.093344207
20.59487902,0.9683212042,0.2111635208,-1.874010205,2.119941093
20.613231,-0.4494179487,-4.431011677,-1.450191736,4.683897634
20.63157016,-0.4256949425,-9.245794296,-1.077994466,9.318154346
20.64989657,-0.2409017086,-14.170228,-0.4286438227,14.17875632
20.66824855,-1.330813527,-17.21711731,-2.01384306,17.38550422
20.68658771,-3.662772179,-18.02269363,-3.671954155,18.75410977
20.70491412,-4.542784214,-16.55451012,-5.022480965,17.88614013
20.7232661,-1.518017888,-13.47065258,-4.435963631,14.26326164
20.74160527,0.9179381728,-11.36768627,-2.159441471,11.60732911
20.75993167,1.395587206,-9.148303986,0.3514492512,9.260812385
20.77828365,0.1854704618,-6.624745846,-0.3343499899,6.635770244
20.79662282,-0.667068243,-4.195941448,-3.410060406,5.44788185
20.81494922,-1.490167379,-4.040847778,-3.548061371,5.580124468
20.8333012,-1.478474259,-5.859493256,-2.966244221,6.731875825
20.85164037,-0.953867197,-8.158185005,-2.506630421,8.587726199
20.86996678,-1.341749549,-10.45596313,-2.469447136,10.82707837
20.88831876,-1.994533539,-12.35039806,-3.137518883,12.89784948
20.90665797,-2.035970926,-13.23095036,-2.673956156,13.65112693
20.92498438,-0.8900265694,-13.18151093,-1.028449416,13.25149372
20.94333631,-0.07285317034,-10.97986984,0.8564043045,11.01345893
20.96167553,-0.2280173302,-7.178689957,0.2610926628,7.187054388
20.98000193,1.438036203,-1.947044373,-4.590771198,5.189808292
20.99835391,3.339174747,11.74316597,-0.7964477539,12.23463788
21.01669308,4.649493217,42.27161407,9.994384766,43.68517907
21.03501949,-4.466333866,22.37352371,3.230330706,23.04252022
21.05337146,-6.509705544,1.980006218,0.5063171387,6.822979403
21.07171063,-3.890845776,2.981905937,8.014380455,9.39471862
21.09003704,1.989835382,10.35047054,12.49132156,16.343953
21.10838902,2.956695557,19.0429039,12.56319046,23.00452112
21.12672824,-1.047548771,18.69124031,5.62488842,19.54735769
21.14505464,-2.926262379,14.21925163,-1.687949657,14.61503686
21.16340657,-4.033349514,12.83119011,0.05632829666,13.45029817
21.18174579,-3.070055008,13.20202255,4.52690506,14.29025915
21.20007219,-1.688378334,13.15131187,5.657369137,14.41573623
21.21842417,-0.1870309711,11.32527447,2.968359947,11.70931181
21.23676334,1.892563581,8.658447266,-4.924010277,10.13885512
21.25508975,2.990174055,6.021432877,-4.239631653,7.948161506
21.27344172,1.543104649,2.251913071,-3.032668114,4.080362768
21.29178094,0.3192226589,-2.700241089,-2.525825024,3.711198876
21.31010735,0.3475239873,-7.798617363,-0.9060919285,7.858766333
21.32845933,0.557785511,-12.42878532,0.8694682121,12.47164
21.3467985,-0.2485868931,-15.76348305,0.9643156528,15.79490734
21.3651249,-2.38009119,-17.92355347,-1.098424673,18.11422479
21.38347688,-3.825258017,-17.93434525,-4.449207306,18.86978495
21.4018161,-2.945644379,-17.32056046,-4.71506834,18.19094568
21.42014251,-1.788504362,-15.34746265,-2.74407196,15.69309685
21.43849448,-0.7561093569,-11.3218708,-1.011700511,11.39210243
21.45683365,-0.4169113338,-6.529563904,-1.444077015,6.700326728
21.47516006,-0.3633654416,-2.571193695,-2.683784962,3.734403993
21.49351204,0.4032854736,-0.8003139496,-3.229324818,3.351369924
21.51185126,0.6491196156,-3.768061161,-4.255739689,5.721097927
21.53017766,-0.05858972669,-7.648887634,-3.766719341,8.526258816
21.54852964,-1.153178096,-9.919009209,-3.137980223,10.46725768
21.56686881,-1.277377725,-11.63685226,-3.310250521,12.16576274
21.58519521,-0.4613564312,-12.47160149,-2.478144407,12.7237924
21.60354719,0.7938089371,-13.15513802,-0.9466965199,13.21302475
21.62188641,1.027916193,-11.3171339,-0.4398217201,11.37222822
21.64021282,0.1592797488,-7.191760063,-3.839409351,8.154008034
21.6585648,-0.2435309291,-0.5092525482,-6.792711735,6.816126333
21.67690396,-0.4600507021,18.34836197,0.7587358952,18.3698044
21.69523037,3.271518469,45.11646271,7.181105614,45.801379
21.71358235,-0.4108592272,15.79262066,4.625716209,16.46125521
21.73192157,-3.401239395,-2.751167774,6.558422089,7.883543229
21.75024797,-4.404209614,1.11037159,12.74177551,13.52711464
21.76859995,-3.185007095,16.91904831,10.28172874,20.05274076
21.78693917,-0.5596293211,20.17836761,5.93953228,21.04180953
21.80526558,1.749083281,15.86889935,4.677734375,16.63617918
21.82361756,-0.2508365512,15.16119671,5.114526749,16.00259943
21.84195672,-2.777228355,15.93358803,3.096434116,16.46754775
21.86028313,-4.272330284,13.6011076,1.838449478,14.37438104
21.87863511,-3.452250719,10.79189873,0.9672861099,11.37184047
21.89697433,0.6371668577,8.883155823,-1.126253843,8.976908527
21.91530074,4.643043518,5.8133564,-1.821138382,7.659602519
21.93365271,4.926631927,2.150363922,-2.232773542,5.820742636
21.95199193,2.368693829,-2.63876915,-3.26603651,4.820872075
21.97031834,0.9758434296,-7.55092907,-2.514433384,8.018177814
21.98867032,-0.3426405787,-12.02866554,-2.573058844,12.3055609
22.00700948,-2.691481113,-16.3168087,-4.046889782,17.02526457
22.02533589,-6.126537323,-18.02733994,-6.463395596,20.1070865
22.04368787,-7.549912453,-17.6866703,-5.522883415,20.00804153
22.06202709,-5.231273651,-15.63648415,-1.583417892,16.5642106
22.0803535,-1.509659171,-12.11393547,-0.006668686867,12.20764301
22.09870547,1.470092535,-9.495045662,1.029305458,9.663153414
22.11704469,3.34796381,-7.31384182,0.3112919331,8.049723381
22.1353711,3.431931019,-4.312422752,-3.803461075,6.696376383
22.15372308,0.7739118338,-3.067927837,-4.000674248,5.100638703
22.17206225,-1.496171236,-4.769040585,-3.107703924,5.885584095
22.19038865,-2.095882177,-6.362671852,-2.19010663,7.047899137
22.20874063,-2.469075441,-8.456516266,-2.049277544,9.044807314
22.22707985,-2.692474365,-11.53886795,-2.716397762,12.15622098
22.24540626,-0.9968210459,-13.65760708,-3.876660824,14.23208988
22.26375824,2.205609798,-13.76744652,-2.713521242,14.20459418
22.28209745,4.183467865,-11.57358646,0.3264479637,12.31080319
22.30042386,1.970973015,-8.070240021,0.296020031,8.312709334
22.31877584,0.5743609667,-1.630691051,-3.238293648,3.670911273
22.33711501,3.12424469,15.0505743,-2.433313847,15.56283098
22.35544146,2.126722813,47.06936264,10.76055336,48.33050132
22.37379344,-7.164651871,15.68954945,-2.444261074,17.42035047
22.39213261,-6.587559223,-3.178534508,-1.494240046,7.465371488
22.41045902,-6.147980213,-1.921291828,6.607683659,9.227703199
22.428811,0.4791733623,5.535406113,11.55009651,12.81698316
22.44715021,3.811284065,14.14327526,10.56231308,18.0588089
22.46547662,0.7829803228,18.29829407,6.695748329,19.5006069
22.4838286,-2.379358768,11.64078236,1.741943836,12.00847744
22.50216782,-2.188588142,8.980873108,4.654146194,10.34925488
22.52049422,-1.974015713,9.791800499,9.054146767,13.48160483
22.5388462,-3.263618469,13.01204205,9.484921455,16.42949113
22.55718542,-4.071627617,16.34853172,4.222885132,17.36909323
22.57551183,-3.8746593,14.88072014,-3.662306786,15.80700185
22.59386381,-0.5127316117,10.98047161,-4.25696373,11.78793412
22.61220297,2.40340662,6.159978867,-2.447009563,7.050500608
22.63052943,2.025609255,1.909687996,-1.653815985,3.238071711
22.64888136,0.46847561,-2.238196373,-1.54047823,2.757184357
22.66722058,0.1874002814,-6.547229767,-1.75245738,6.780298176
22.68554699,0.11206007,-10.21852875,-1.621715903,10.3470213
22.70389896,0.07140368223,-14.36800575,-2.49380517,14.5829953
22.72223818,-0.839194119,-17.50729752,-2.441320419,17.69660302
22.74056459,-2.638309002,-18.22899055,-3.913089037,18.83000363
22.75891657,-2.053229332,-16.57688522,-3.977611542,17.17062224
22.77725579,0.03522747755,-13.21815872,-3.497983932,13.67321661
22.79558219,0.8183443546,-10.38950539,-2.177860737,10.64681112
22.81393417,1.249680281,-7.906162739,-1.401006699,8.126003312
22.83227334,1.264683843,-5.722364426,-1.796021461,6.129483904
22.8505998,0.9735087752,-3.501964569,-2.089651585,4.192626733
22.86895178,0.2208242416,-3.546438694,-3.315996885,4.860229017
22.88729094,-0.6438089609,-5.66312027,-3.551124096,6.715348354
22.90561735,-1.430489302,-8.283098221,-3.305351734,9.032240357
22.92396933,-3.070111752,-11.27180195,-1.989266872,11.85058176
22.94230855,-4.446251869,-13.31341076,-1.891044855,14.16305449
22.96063495,-3.819273233,-14.42165565,-2.178689003,15.07705826
22.97898693,-2.408936262,-13.17492771,-0.6330039501,13.4082955
22.99732615,-1.454221249,-8.538012505,-1.599843144,8.807491984
23.01565256,0.3877425194,-3.841827869,-5.947797775,7.091282255
23.03400454,2.332639933,8.370847702,-5.553688526,10.31289273
23.0523437,9.731848717,49.62541962,6.420349121,50.9765832
23.07067016,4.468027115,28.05460739,0.9086539745,28.42270068
23.08902214,-2.730657816,-3.790002346,1.070770264,4.792406373
23.10736131,-1.726808906,-5.724247932,6.890807629,9.12316355
23.12570053,0.0450066328,3.454263687,5.206246376,6.24811688
23.14403974,0.6232210398,4.095930099,3.861081123,5.663302507
23.16237891,1.185550451,8.389900208,7.727623463,11.46787338
23.18070532,-4.030207634,11.31686592,8.377529144,14.64571686
23.1990573,-4.777938843,9.447804451,7.430099964,12.93429913
23.21739652,-2.79254961,7.905339241,6.795927525,10.79246741
23.23572292,-2.036191463,9.298266411,6.301263332,11.41532976
23.2540749,-2.244973421,12.40137291,6.74096632,14.29246594
23.27241412,-2.016535759,13.26891518,6.14937067,14.7629701
23.29074053,-0.8864089847,12.76257896,3.758093834,13.3338821
23.30909251,0.3605633378,12.62586594,2.523634911,12.88065331
23.32743167,3.472778082,11.76307869,-2.071011782,12.43862121
23.34575813,6.119554996,9.034943581,-5.741707802,12.33070831
23.36411006,3.068185329,5.458417892,-4.120123386,7.495565611
23.38244928,0.0672236681,0.1661901474,-1.806678534,1.815551021
23.40077568,0.0272218585,-4.733511925,0.1310350895,4.735403506
23.41912766,-0.8334057331,-8.922431946,-0.6778655052,8.986871457
23.43746688,-2.906362534,-13.17712021,-2.74974823,13.77114939
23.45579329,-4.300704956,-17.4704628,-2.472300053,18.16109581
23.47414527,-4.220720291,-19.74956894,-2.889841318,20.40125329
23.49248449,-0.9480242729,-19.42135429,-3.132674217,19.69521263
23.51081089,0.3710606098,-15.88683414,-2.484084845,16.08414942
23.52916287,-0.3761840463,-11.73352051,-2.383332014,11.97903541
23.54750204,-1.148727417,-6.836821556,-3.292586803,7.674818013
23.5658285,-2.339817524,-2.995345116,-3.505134583,5.170377825
23.58418047,-2.611577272,-2.174365044,-1.339439631,3.652711009
23.60251964,-0.6688982248,-4.116269112,-2.730926037,4.984882471
23.62084605,0.3980602622,-6.125916481,-4.335052967,7.515183892
23.63919803,0.6503109932,-8.389004707,-3.688316107,9.187055027
23.65753724,0.3919086456,-10.41615582,-2.513003111,10.72217697
23.67586365,0.03950321674,-12.23535538,-2.266751528,12.44361861
23.69421563,-0.0291942358,-13.78180695,-2.386288881,13.98690207
23.71255485,-0.7992372513,-13.56581974,-2.213526249,13.76844014
23.73088126,-1.965076327,-11.92777252,-1.277163267,12.15583927
23.74923324,-2.112010479,-9.041073799,-1.535778761,9.410643979
23.7675724,-1.684707284,-5.694975853,-4.288965702,7.325722858
23.78589886,-1.000012517,2.450078964,-7.900606632,8.33201639
23.80425084,3.606669903,29.70291138,3.871446609,30.17050067
23.82259001,8.647819519,43.72909546,7.43170929,45.19124777
23.84091641,-1.354440451,7.458750725,2.06278038,7.856369022
23.85926839,-6.270669937,-6.455676079,0.6743068695,9.025062041
23.87760761,-2.539545536,5.09461689,6.506865501,8.645444548
23.89593402,2.581770658,12.83142185,6.976058483,14.83159865
23.914286,4.559373856,16.16907501,6.109641552,17.87609008
23.93262521,-0.9299769402,13.97064686,6.690831661,15.51808813
23.95095162,-5.069915771,11.78718185,6.601373196,14.42982433
23.9693036,-3.47778821,9.632564545,7.080565929,12.45053109
23.98764277,-2.952209949,10.34470844,6.910871029,12.78626899
24.00596917,-3.464500189,13.84961796,5.544411659,15.31519441
24.02432115,-3.563190699,14.77694798,2.723517656,15.44254085
24.04266037,-1.727946043,13.52841187,-2.052317619,13.79187198
24.06098678,1.629658461,11.15888596,-3.363815546,11.76825295
24.07933876,3.341138124,6.291040421,-2.632640123,7.594154828
24.09767797,2.999364376,0.9517879486,-1.00121665,3.302199531
24.11600438,1.839985967,-2.840174198,-0.1720459461,3.388471284
24.13435636,0.9564852715,-6.344512939,-0.8899366856,6.477630417
24.15269553,0.2604579926,-10.26768112,-1.577546835,10.39142762
24.17102199,-1.710903883,-13.8028717,-3.117498636,14.25360506
24.18937396,-5.01890707,-17.16784096,-3.964726925,18.32056907
24.20771313,-6.507031441,-19.96770096,-3.83344841,21.34820523
24.22603954,-2.646133661,-18.60932732,-3.155342817,19.05951927
24.24439152,0.3995473385,-13.81548977,-1.760532737,13.93294194
24.26273074,1.605216026,-10.31288242,-0.2223496437,10.43943014
24.28105714,1.02607286,-6.024506569,-1.328375697,6.253965694
24.29940912,-0.7051361799,-2.189120293,-3.967778206,4.586145285
24.31774834,-2.572335958,-2.713121414,-3.568049908,5.16806736
24.33608751,-2.119711399,-4.786399364,-3.080924273,6.074116369
24.35442672,-1.469382167,-7.325184822,-3.341398478,8.184275192
24.37276589,-1.322126627,-9.916769028,-3.508362293,10.60183629
24.3910923,-1.059155822,-11.49994564,-3.222118855,11.98968768
24.40944428,0.01046401262,-11.75859356,-3.444501877,12.25272317
24.4277835,1.223204613,-12.25678158,-2.919776201,12.65898958
24.4461099,1.177031159,-11.88990021,-0.985476017,11.98859009
24.46446188,-0.9987260103,-9.536935806,-0.8565921783,9.627271076
24.4828011,-3.570480585,-4.816699028,-2.236584663,6.39931497
24.50112751,-4.389706612,1.235571861,-5.337494373,7.020328208
24.51947948,0.5426052809,14.67440891,-1.987318635,14.81830398
24.53781865,9.339065552,46.79433441,6.705983162,48.18607775
24.55614511,4.441706657,21.39941406,-2.07215023,21.95353017
24.57449709,-4.442822456,-2.64805603,-3.451076508,6.217781049
24.59283626,-9.41836071,-2.623463631,4.498326778,10.76211056
24.61116266,-0.01781260967,4.049009323,10.35315609,11.11677268
24.62951464,6.33409977,8.50372982,7.034491062,12.72471238
24.64785386,4.650605679,13.9768734,4.773046017,15.48428531
24.66618027,-3.053729296,9.05832386,4.515526295,10.57206089
24.68453224,-9.160429001,7.695968628,5.949669361,13.36188453
24.70287146,-5.611495972,6.320557594,7.36627388,11.21161568
24.72119787,-1.106408834,7.120126724,5.720096588,9.199991851
24.73954985,0.01223957539,10.00823402,5.583359718,11.4603143
24.75788902,-0.5355061889,13.57186699,5.460951805,14.6391371
24.77621542,-0.5279474258,16.14676857,1.68913579,16.24346156
24.7945674,-0.02788865566,15.34648991,-5.77118206,16.39579436
24.81290662,-0.8688258529,10.43950272,-3.842942715,11.15823839
24.83123303,0.5611926317,4.754434586,-3.090925217,5.698544033
24.84958501,2.088300228,0.2038488388,-2.347940207,3.148868909
24.86792422,1.07291007,-3.647902012,-0.8128722906,3.88832695
24.88625063,0.04838335514,-8.770249367,1.452037096,8.889770899
24.90460261,-0.7717220187,-14.16068077,2.136823177,14.34177284
24.92294178,-2.017570496,-18.0568924,0.0751786232,18.16941401
24.94126818,-3.974405766,-19.28733826,-4.695703983,20.24467718
24.95962016,-3.757610321,-18.34102249,-6.288715363,19.74995398
24.97795938,-2.104902506,-16.30338287,-5.39215517,17.3004695
24.99628579,-1.196364045,-11.51316547,-4.153308868,12.29773315
25.01463777,-1.971532822,-6.169129372,-3.685234547,7.451580539
25.03297698,-1.719306946,-2.300567627,-2.146687031,3.585650985
5.147264523,-11.37146187,-33.65422821,-3.287086487,35.67523173
5.16560244,-13.73557281,-13.32077789,-4.308882713,19.61314749
5.183927544,-7.499811172,-1.71454525,-0.2194809914,7.696428064
5.202278221,-5.7756567,-4.746538162,-5.195002079,9.10361914
5.220616086,-6.155652046,-10.83292103,-2.858645201,12.78343
5.23894119,-9.785484314,-20.99941254,-4.315760612,23.56600984
5.257291867,-11.60508919,-21.6135807,-1.341026306,24.56874676
5.275629731,-8.032826424,-16.20745087,-3.294843912,18.38651028
5.293954888,-5.915600777,-13.88458443,-4.600609779,15.77788413
5.312305513,-4.715456486,-12.11090946,-5.681743622,14.18421194
5.330643429,-3.681061268,-8.495922089,-7.078801155,11.65505598
5.348968534,-3.166201591,-4.034605026,-5.982560158,7.879968038
5.367319211,-2.566549063,1.123642445,-6.667675972,7.232402734
5.385657075,-0.8006373644,6.488245964,-7.390798092,9.867231239
5.403982179,1.058331847,9.132006645,-4.198462009,10.10646797
5.422332856,1.140748978,10.95892334,-4.088448524,11.75222193
5.440670721,1.054118037,13.51008034,-8.328494072,15.90588725
5.458995825,1.414535165,14.2314682,-10.0038681,17.45316515
5.477346502,2.852089167,12.14989662,-8.574560165,15.14191146
5.495684419,4.144343376,8.010501862,-5.543998241,10.58676715
5.514009523,3.984309196,5.775943756,-4.43475914,8.300803255
5.532360148,3.026647806,4.129545212,-4.51788044,6.82824899
5.550698065,0.86365062,3.492187977,-5.285609722,6.393664004
5.569023169,-1.171173334,4.889597893,-6.570136547,8.273240525
5.587373846,-1.762396455,7.488959789,-7.889032364,11.01940977
5.605711711,-0.3080239296,8.322964668,-7.722455978,11.35794638
5.624049627,1.015565038,8.145733833,-6.186437607,10.27892807
5.642387492,1.563710928,7.342054844,-5.07758522,9.062716638
5.660725356,1.511078477,7.475333691,-5.221378326,9.242659984
5.679050513,1.321645617,7.97079277,-9.500261307,12.47137721
5.697401138,1.060333729,6.200866699,-10.62026596,12.34362607
5.715739054,1.544252872,1.427145481,-3.052934408,3.707002786
5.734064159,2.944103241,-6.906155586,-3.140396118,8.13786315
5.752414784,-1.446614265,-16.20062637,2.952526569,16.53089232
5.7707527,-8.581127167,-21.5046196,-6.864330292,24.14960534
5.789077804,-10.2547636,-10.29472637,-1.16764164,14.57754968
5.807428481,-6.109623432,-8.841035843,-5.420768261,12.03645055
5.825766346,-6.61789608,-16.72471619,-5.905228138,18.93104327
5.84409145,-6.684328079,-18.73491287,-3.428328037,20.18491108
5.862442127,-6.399399281,-16.75256348,-3.243291855,18.22414981
5.880779992,-7.61690712,-18.81311989,-3.483623028,20.59335775
5.899105096,-5.805139542,-18.17963409,-4.019654274,19.50272702
5.917455773,-2.648952007,-14.89406013,-2.376836777,15.31337086
5.935793638,-1.215242267,-12.52485943,-3.156873465,12.97361814
5.954118742,-0.9279222488,-9.611566544,-4.97829771,10.86400935
5.972469419,-1.792836428,-5.932949066,-7.753890038,9.926578353
5.990807284,-2.729623556,-0.07431125641,-8.518368721,8.945332447
6.009132388,-2.015075207,4.920014381,-7.246002197,8.987303124
6.027483065,-0.157651186,8.86359787,-6.777028084,11.15868858
6.045820929,-0.6185290217,12.50670624,-11.39765549,16.93241949
6.064146086,-2.534490585,12.13005352,-13.69379807,18.468404
6.082496711,-2.690948725,11.33597183,-6.384372711,13.28554392
6.100834627,-0.09440720081,11.76017857,-3.032588482,12.14525856
6.119159731,2.72422266,10.92037678,-3.909179211,11.91460029
6.137510356,4.781277657,7.755067825,-2.814457655,9.535348179
6.155848273,4.666807652,6.519188881,-2.57174325,8.419785072
6.174173377,3.117122173,5.1994977,-5.366562843,8.096371022
6.192524002,1.405998945,5.574826241,-7.206383705,9.218865806
6.210861919,2.093658209,6.762103081,-5.6878829,9.080828963
6.229199784,2.884741545,7.751741886,-5.259111881,9.801504672
6.247537648,2.323814392,7.504126072,-6.01082468,9.89151327
6.265875565,1.150852442,7.119193554,-6.500359535,9.708864624
6.284200669,-0.5618553162,7.1176157,-6.350190163,9.55515828
6.302551294,-1.963564277,6.841263294,-5.137275219,8.777816631
6.320889211,-3.272592306,6.523485184,-12.21878719,14.23251488
6.339214315,-3.211373568,4.877921104,-20.18063927,21.00869429
6.357564992,-0.5382786989,0.1917886734,-2.09534955,2.171869377
6.375902856,1.820472717,-5.956384659,3.617530346,7.202719273
6.394227961,-1.185896397,-12.42414093,3.084165573,12.8560377
6.412578638,-6.733732224,-24.41428947,-7.088258743,26.29912721
6.430916502,-17.94401932,-24.7408371,-11.99814224,32.83370626
6.449241606,-12.78721619,-16.10140991,1.695750237,20.63113831
6.467592284,-1.485417843,-8.686300278,-7.014152527,11.26306416
6.485930148,3.253357887,-8.671791077,-5.657806873,10.85334403
6.504255252,1.222620964,-13.95624161,-4.178179264,14.61946182
6.522605929,-3.726257563,-18.66235542,-4.542261124,19.56529176
6.540943794,-6.301551819,-17.64614487,-2.851953268,18.95335383
6.559268898,-5.797257423,-14.01085663,-0.9050722122,15.18984703
6.577619575,-5.10857296,-12.74468517,-1.538371325,13.81633469
6.59595744,-3.675368309,-10.36911488,-3.368714333,11.50543836
6.614282544,-2.477051735,-6.505569458,-5.488423824,8.864593355
6.632633221,-1.957466602,-1.181962967,-7.228240013,7.58130369
6.650971086,-1.22037518,3.038851738,-7.075326443,7.796420957
6.66929619,0.7171519995,6.301868439,-8.137464523,10.31727588
6.687646867,3.215969324,9.99505043,-8.489830971,13.50261907
6.705984731,3.186083555,12.52680111,-11.73090363,17.45525635
6.724309836,0.3821750879,9.932631493,-15.73674583,18.61312428
6.742660513,-1.109006286,8.619719505,-4.81820631,9.937030308
6.760998377,-0.1599764824,10.03068733,-0.6931376457,10.0558799
6.779323534,1.085555077,10.34307289,-2.656097412,10.7337058
6.797674159,2.877717018,8.024049759,-2.278734922,8.823789584
6.816012075,2.690010548,6.690878868,-3.202016354,7.890305793
6.834337179,0.8546383977,5.722426891,-5.351165295,7.88108789
6.852687804,-0.04804086685,5.909962654,-7.726100922,9.727414967
6.871025721,1.659087062,6.819272995,-6.996268272,9.90973379
6.889350825,3.231737852,7.423069477,-6.002477169,10.07848313
6.907701502,3.553538322,7.306952953,-5.33023262,9.717539599
6.926039367,2.617394924,7.51495266,-4.68999958,9.236956519
6.944377231,1.819950342,7.688428879,-3.454344749,8.62303053
6.962715148,1.33748436,7.963253975,-9.579909325,12.5290439
6.981053013,0.5182921886,6.164532661,-17.52812576,18.58777239
6.999378117,-0.7269277573,1.599134445,-1.60428381,2.378945455
7.017728794,-0.03351521492,-5.661645889,-0.5244784355,5.685985849
7.036066659,-3.04547596,-14.05495262,-0.3242332935,14.38477474
7.054391763,-7.843185902,-25.40332222,-2.577236176,26.71116791
7.07274244,-16.47256279,-29.23939133,-16.16472435,37.25031065
7.091080356,-9.63632679,-15.28686714,2.673417568,18.26730036
7.109405461,0.5699846745,-10.92925072,-6.331366062,12.64355962
7.127756086,2.807514191,-12.37417793,-6.011626244,14.04072881
7.146094002,-0.8415825367,-16.80594826,-4.270792484,17.36052495
7.164419106,-4.57622242,-20.21337891,-4.137115479,21.13381705
7.182769784,-4.940645695,-16.81060982,-1.120737791,17.5574097
7.201107648,-4.095366001,-12.47725582,-1.500743628,13.21764604
7.219432752,-2.962484837,-9.580383301,-2.612942934,10.36279554
7.237783429,-1.955792546,-6.017334938,-4.72736311,7.898190059
7.256121294,-2.062045574,-0.8234434128,-7.341078758,7.669519433
7.274446398,-2.731186867,4.109403133,-7.582075119,9.046238938
7.292797075,-1.281689048,7.99815321,-7.616663933,11.11875672
7.311134992,0.4397514462,10.9962616,-8.483447075,13.89532384
7.329460096,-0.8899452686,12.4016161,-12.59368134,17.69725668
7.347810721,-1.121216893,11.55978203,-16.86107063,20.47391977
7.366148638,0.775606215,9.596059799,-4.831743717,10.77180004
7.384473742,2.876965523,10.09020615,-0.2643532753,10.49566927
7.402824419,4.449319839,9.00910759,-0.819583416,10.08127887
7.421162284,4.030777454,7.408009529,-1.062990189,8.500336476
7.439487388,1.249457359,6.809409142,-1.597985506,7.10512169
7.457838065,-1.663500428,6.443704605,-5.636668205,8.721272337
7.476175929,-2.256043911,6.454735756,-8.679872513,11.04959432
7.494501086,0.782576859,6.764978886,-8.549196243,10.93005591
7.512851711,3.789937019,7.83998251,-6.5392313,10.88992628
7.531189627,5.475541115,8.519342422,-4.044176579,10.90486635
7.549527492,5.605593681,8.306100845,-3.910135746,10.75654003
7.567865409,3.311243773,8.429242134,-4.612924576,10.16344092
7.586203273,0.8407375813,7.694379807,-4.887426376,9.154084163
7.604528377,-1.07804215,6.403733253,-14.68157578,16.05361771
7.622879054,-2.422519922,1.822741508,-11.57440186,11.96485552
7.641216919,-2.415616274,-4.779580116,0.4038624763,5.370539356
7.659542023,-5.306777954,-16.07961845,-2.431128025,17.10632647
7.6778927,-12.8208189,-30.33491516,-7.991265297,33.88865291
7.696230617,-16.58530998,-25.20769119,-8.9865942,31.48426715
7.714555721,-5.859383583,-7.471670151,5.804099083,11.12860265
7.732906398,1.240607738,-5.876868248,-3.973438025,7.201728799
7.751244263,1.665510774,-5.979897499,-3.470573902,7.111819981
7.769569367,-1.57885623,-14.38866425,-5.525613785,15.49383276
7.787920044,-10.31123161,-26.92593002,-4.4444561,29.17328221
7.806257909,-13.50130081,-23.21528053,-4.025103569,27.15576978
7.824583065,-7.704083443,-13.23183823,-3.384609938,15.680881
7.84293369,-2.797878742,-10.85259533,-2.171463251,11.41587506
7.861271606,1.568548203,-8.158144951,-3.488034248,9.010108513
7.879596711,4.25682497,-3.70563221,-6.293160439,8.453173203
7.897947388,3.836666107,2.639052391,-5.187810898,6.971225592
7.916285252,-0.1393772364,6.216730118,-6.775954723,9.196777794
7.934610356,-1.484239101,9.27145195,-5.616427422,10.94107143
7.952961034,-4.350834846,10.05968952,-6.667809486,12.82913873
7.971298898,-7.60213089,12.20074654,-15.92643929,21.45465167
7.989624054,-5.466943741,11.40432644,-11.70749378,17.23402292
8.007974679,0.9885881543,10.08283806,-4.799110889,11.21036998
8.026312596,5.657785892,9.454930305,-4.512132168,11.90653539
8.0446377,7.363171577,7.357671261,-1.860375166,10.57414856
8.062988377,5.777822495,6.796662331,-0.171807766,8.922296202
8.081326242,2.01412487,6.422364235,-2.366130114,7.134566075
8.099651346,-2.237297773,6.766692162,-7.090789795,10.05350307
8.118002023,-2.870092154,7.77733469,-8.254005432,11.69841739
8.136339888,0.455221504,7.980722904,-5.352947235,9.620457827
8.154664992,2.914598942,7.958644867,-5.160387516,9.922928722
8.173015669,3.705510139,6.996040344,-5.735323906,9.775956536
8.191353586,2.674289703,6.884189129,-5.836223125,9.413043384
8.20967869,0.7275905609,7.415025234,-4.465098381,8.686143609
8.228029367,-0.7129859924,7.991879463,-7.379732132,10.90132711
8.246367231,-2.46753931,7.001916409,-14.90813351,16.65436965
8.264692336,-2.360498905,4.893941879,-9.462018967,10.91111475
8.283043013,1.577437878,0.7941522598,0.1445550919,1.771971852
8.301380877,2.903556108,-5.439684868,3.565719604,7.122862194
8.319705981,-0.9448957443,-19.13330841,3.293608189,19.4376998
8.338056659,-25.16823578,-49.25992966,-26.46500778,61.32191614
8.356394575,-26.42832756,-22.68403625,-1.13182807,34.84685112
8.374719679,0.9550118446,-6.817447662,-6.225866318,9.281759082
8.393070304,10.96558762,-4.688045502,3.695822716,12.48523079
8.411408221,11.89928818,-3.388346672,-2.550634861,12.63248552
8.429733325,5.774471283,-15.87851334,-3.382504463,17.23116481
8.448084002,-9.054256439,-33.39156342,0.5778999329,34.60216807
8.466421867,-14.97393036,-25.18536758,-1.057868719,29.31962512
8.484746971,-10.87600708,-11.83312035,-0.9628269672,16.10084789
8.503097648,-7.144413471,-7.207535744,-1.490313768,10.2573023
8.521435513,-2.371555805,-3.679289818,-6.624096394,7.939779816
8.539760669,2.151201248,0.5171494484,-9.555145264,9.807951436
8.558111294,0.07832172513,4.146490574,-9.846385956,10.6841394
8.576449211,1.249625921,8.131314278,-10.34911442,13.22059023
8.594774315,0.480140388,10.00399017,-11.8253088,15.49671844
8.613124992,-1.764389038,11.13507462,-17.12768173,20.50513196
8.631462856,0.1230442375,9.45820713,-6.272351265,11.34967896
8.649787961,2.441801786,11.60729218,0.03437137604,11.86139996
8.668138638,3.327854156,11.51507282,2.439841747,12.23210297
8.686476502,2.070938826,10.05138206,-0.1808805466,10.26410185
8.704801659,-1.637238741,8.553663254,-4.725688934,9.908473225
8.723152284,-4.459527016,6.514231682,-8.195734024,11.37948381
8.7414902,-1.823809147,5.76124382,-4.045109749,7.271940803
8.759815304,0.9665833712,7.233850002,-3.141790867,7.945672981
8.778165981,2.587030888,7.588383198,-4.792601585,9.340520239
8.796503846,3.604020357,7.320504189,-6.763685226,10.5984047
8.81482895,4.032833099,7.047147751,-7.745193481,11.22114327
8.833179627,2.203520298,7.304544449,-7.337444305,10.58536538
8.851517492,0.04864385724,7.851096153,-6.501191139,10.19350594
8.869842596,-1.381696343,8.259185791,-5.444534302,9.988302582
8.888193273,-2.279603481,8.264877319,-4.405905247,9.639335567
8.906531138,-4.265315533,8.82839489,-14.76828766,17.72669719
8.924856242,-3.053792477,5.460832596,-10.86476135,12.53751891
8.943206919,0.9574404359,-2.179176331,8.427264214,8.756956309
8.961544836,-0.2801351547,-13.05293179,5.518992424,14.17451168
8.97986994,-10.01667786,-31.35271835,-13.64149857,35.62888248
8.998220617,-19.51011086,-25.6788063,0.646253109,32.25621121
9.016558481,-9.034543037,-11.68842983,-4.137145042,15.34139267
9.034883586,-3.119740486,-12.04324913,-4.660514355,13.28506772
9.053234263,0.2629408836,-16.14477539,-4.797260761,16.8444834
9.071572127,-3.105118275,-20.69556046,-5.938271523,21.75341469
9.089897231,-7.834183693,-20.1341629,-5.500895023,22.29391836
9.108247909,-6.933965683,-16.21967316,-3.345206738,17.95405485
9.126585773,-5.572336197,-12.98502922,-3.364879608,14.52529963
9.144910929,-3.854579449,-10.31301785,-3.82095933,11.65400575
9.163261554,-2.238879204,-6.41413784,-3.544165134,7.662561636
9.181599471,-1.120866776,-0.6201887131,-3.240276337,3.484302958
9.199924575,-1.181837916,4.718726635,-3.631469011,6.070476843
9.218275252,-1.614376187,8.840959549,-5.454538345,10.51288565
9.236613117,-1.544509888,11.14828968,-4.390242577,12.08073274
9.254938221,-2.57598424,12.5217123,-5.707536697,14.00017675
9.273288898,-2.949716806,13.43032074,-12.87791634,18.83918983
9.291626763,-0.3567358851,9.992817879,-11.86351299,15.5153669
9.309951867,2.914965868,9.168599129,-6.752289772,11.75387822
9.328302544,5.901058197,8.321669579,-2.252660036,10.44735132
9.346640461,6.685733318,6.579042912,-1.46023488,9.492898479
9.364965513,4.995322227,5.752423286,-3.188652754,8.259002616
9.38331619,1.607086658,5.608138084,-4.123901367,7.144263628
9.401654106,-1.451941252,6.504816055,-6.09832859,9.033846186
9.419979211,-1.997913122,7.796054363,-6.374616146,10.26673519
9.438329836,-0.8253688216,8.529129982,-5.287718296,10.06912393
9.456667752,0.03814351559,8.646128654,-5.549519539,10.27395556
9.475005617,0.3582363725,8.328967094,-6.291250229,10.4441302
9.493343534,0.3139074445,8.394269943,-5.771635056,10.19186327
9.511681398,0.8103353977,8.968185425,-4.71386385,10.1639316
9.530006502,1.26003027,9.591300964,-13.37997627,16.51073879
9.548357179,2.047392607,6.245224953,-10.20342445,12.13690742
9.566695044,1.781805992,0.9967689514,5.878340721,6.222802469
9.585020148,1.916427851,-6.62075901,-0.7321186066,6.931316126
9.603370825,-4.776823044,-22.00489044,-0.3240358829,22.51973004
9.62170869,-17.79829597,-32.18569565,-5.251158714,37.15202568
9.640033794,-17.01714325,-16.31843948,-2.333104372,23.69215076
9.658384471,-6.184776306,-11.09886265,1.596691608,12.80568757
9.676722388,-2.647341967,-13.96720886,-3.491866589,14.63845877
9.695047492,-1.556482077,-18.03610229,-5.24045372,18.84637837
9.713398117,-4.795948505,-18.77639198,-5.08182621,20.03444473
9.731736034,-7.333450317,-17.22753906,-4.362298012,19.22491195
9.750061138,-7.045505047,-14.00131226,-3.65845108,16.09534562
9.768411815,-5.466314316,-9.927802086,-3.525153875,11.86880602
9.786749679,-3.607395172,-6.523228645,-3.880556345,8.40384016
9.805074784,-2.245072365,-2.153084755,-3.591347694,4.751200074
9.823425461,-0.9289852381,3.143157482,-2.492383957,4.117575782
9.841763325,0.2996178865,7.386713982,-2.616312027,7.842091746
9.860088429,1.518112898,10.83312893,-3.968945742,11.63674695
9.878439106,1.729070067,12.63890934,-4.557457447,13.54629584
9.896776971,0.2390120029,12.57564354,-5.514844418,13.73380669
9.915102075,-0.8017904758,11.60430813,-8.738929749,14.54894251
9.933452752,0.1026928425,9.839627266,-9.379312515,13.59412792
9.951790617,2.565047741,8.597593307,-7.454304695,11.66467912
9.970115721,4.786403656,7.813942909,-6.404285431,11.17954541
9.988466398,5.869195461,6.880068779,-4.411687851,10.06209677
10.00680432,5.012901306,6.069469929,-2.743479729,8.336325674
10.02512942,1.985526323,6.267204762,-2.775939465,7.136246227
10.04348004,-1.11923182,6.964177608,-4.257741451,8.238981241
10.06181796,-2.91887331,7.940649509,-5.611465454,10.15195945
10.08015582,-2.29099822,8.329483986,-5.137280464,10.05090179
10.09849369,-1.107536077,8.36133194,-4.61871767,9.61618744
10.11683161,0.01417160034,8.051171303,-3.811273575,8.907713873
10.13515671,1.002775311,8.538831711,-11.0411005,13.99368092
15.15975775,-1.571939707,-12.02517033,-0.5857352018,12.14161445
15.17809572,-0.9062316418,-7.74942112,-1.098962665,7.879245041
15.19642088,-0.7631084919,-3.192673683,-2.371217489,4.049465668
15.21477161,-0.9994696379,2.29357481,-3.420025349,4.23745187
15.23310958,-0.5464653969,7.490424156,-2.738104105,7.993890952
15.25143473,1.415957451,11.40583801,-2.870894909,11.84652328
15.26978546,2.02804184,13.30509663,-4.302320004,14.12970302
15.28812343,-0.7857263088,13.87125397,-8.697707176,16.39143565
15.30644859,-3.377393246,11.43070412,-11.72279263,16.71800373
15.32479932,-1.919453859,8.984911919,-6.490767479,11.24913365
15.34313728,1.871957302,9.134458542,-2.74592185,9.7202183
15.36146244,4.810894012,8.738108635,-1.176510453,10.0440739
15.37981317,5.898447037,8.35929966,0.3902471066,10.23825479
15.39815114,4.367366791,8.156201363,0.3737981319,9.259440501
15.41647629,1.132910013,7.712796211,-0.5998973846,7.818605206
15.43482708,-1.28393364,7.850075722,-3.909981966,8.863415448
15.45316499,-1.283351302,8.65237236,-6.451667786,10.86897213
15.4714902,1.000092745,9.702787399,-5.283331871,11.09314493
15.48984093,2.823230028,9.72204113,-2.865216255,10.52132006
15.5081789,3.901032925,9.287619591,-2.030834436,10.27629428
15.52651682,3.905962229,8.954631805,-1.729272366,9.92130811
15.54485478,3.687713623,8.9910326,-2.601766109,10.06017325
15.56319275,3.641567469,8.586083412,-8.732624054,12.77656311
15.58151791,2.081658125,5.603758812,-8.088299751,10.05763423
15.59986864,0.1002697945,0.7299470901,1.434489012,1.612648601
15.61820661,1.869679332,-8.264243126,-4.335283279,9.517777911
15.63653182,-3.952274323,-19.90675735,9.270501137,22.31236545
15.65488254,-15.63250351,-34.12562561,-5.80130434,37.98142469
15.67322051,-11.9114275,-14.35065269,-4.346699715,19.14985995
15.69154567,-2.255190372,-6.87907505,3.806563377,8.179088086
15.70989645,0.6814877987,-6.758469582,0.2370038033,6.796874834
15.72823442,-0.7963490486,-12.96899414,-0.9140595198,13.02553207
15.74655958,-7.90344429,-23.44816017,-2.232200861,24.84478552
15.7649103,-6.686600208,-19.50592422,-2.594635487,20.78277738
15.78324827,-3.104047537,-14.15183067,-1.679914832,14.58531921
15.80157348,-0.6622269154,-13.16585159,-2.803456783,13.47729804
15.81992421,1.721361876,-12.29832935,-2.920261145,12.75695562
15.83826218,2.530335188,-9.451919556,-2.364683151,10.06643461
15.85658739,1.916252613,-5.247190475,-2.202388048,6.004626972
15.87493812,0.6513139009,-1.210707664,-3.262318134,3.54016136
15.89327609,-0.501054287,2.848752499,-2.579343081,3.87549441
15.91160129,-0.7625073195,7.732459545,-0.5148727894,7.787004688
15.92995202,-0.3244261742,11.82073498,0.3629853725,11.83075594
15.94828999,-3.449420452,15.13735962,-4.181828022,16.07873886
15.9666152,-6.905885696,15.60757637,-10.31132698,19.94018961
15.98496593,-6.03369379,13.5714941,-11.05134964,18.5127859
16.0033039,-0.490413785,9.477931976,-6.274335384,11.3771255
16.02162911,4.434900284,7.993487835,-2.981913567,9.615404142
16.03997984,7.204739094,6.685419083,0.8732185364,9.867401093
16.05831786,7.678415298,6.672119141,1.1841681,10.24097112
16.07664301,5.329002857,7.05626297,0.7930612564,8.877953858
16.09499379,1.205045462,7.680116177,-0.5565736294,7.793978012
16.11333176,-1.255814672,8.375886917,-3.446507931,9.143903382
16.13165697,-1.522920728,8.651981354,-5.8396101,10.54879685
16.1500077,0.1726300716,9.33761692,-5.706910133,10.94484875
16.16834567,1.740409136,9.551075935,-4.60216713,10.74392935
16.18668364,2.322596073,9.674463272,-4.271457195,10.82751304
16.20502166,2.189119577,9.915602684,-2.841908932,10.54456578
16.22335963,1.825748086,10.05562115,-4.833964348,11.30557756
16.24168484,0.7406208515,8.291543961,-14.3275156,16.57033264
16.26003557,0.5358943939,4.21292305,-5.444680214,6.9051029
16.27837353,3.678361893,-2.35203743,1.559407949,4.636181558
16.29669874,0.9736449718,-9.032161713,8.220205307,12.25151848
16.31504952,-6.486172676,-29.61859512,-2.388785601,30.41443588
16.33338749,-20.5130043,-35.73028946,-0.4666051865,41.2026049
16.3517127,-12.46982479,-13.63340282,-6.405988693,19.5551245
16.37006348,1.113921165,-7.227637291,3.893998384,8.285094121
16.38840145,4.140338898,-6.01061821,-3.698884487,8.182400864
16.40672666,4.46833086,-11.82277966,-0.6864322424,12.65761781
16.42507744,-1.71463728,-22.8207283,-0.1902663708,22.88584328
16.44341541,-6.915132523,-26.37545586,-2.324673414,27.3658151
16.46174062,-6.898647785,-15.74267673,-1.507331848,17.25384773
16.4800914,-4.948406219,-11.49142265,-0.4928605556,12.5212791
16.49842937,-1.529117346,-8.619681358,-0.3847584724,8.762713373
16.51675458,0.9836600423,-4.464180946,-1.817784786,4.91943494
16.5351053,1.892409325,1.309567451,-3.099217176,3.860223707
16.55344332,1.601608992,5.807810783,-2.724007607,6.611810259
16.57176853,1.141848564,7.945091248,0.3712990284,8.035306842
16.59011932,0.2849217057,10.56002808,-3.248284578,11.052001
16.60845728,-3.985892296,12.79969597,-13.92898083,19.33225443
16.62678249,-6.264455318,12.15100193,-12.51371193,18.53330069
16.64513327,-2.079921722,10.9017067,-6.716727257,12.97257524
16.66347124,3.751362324,10.64855862,-4.388832092,12.11306596
16.68179645,6.632379532,9.966979027,-0.3628647327,11.97751226
16.70014723,6.536930084,9.260217667,1.989204645,11.50825883
16.71848525,4.424653053,8.350614548,2.695311069,9.827259014
16.73681046,0.598755002,7.590898514,1.601412296,7.78105193
16.75516119,-2.488037109,6.947001457,-3.532918692,8.18123905
16.77349921,-3.354054928,7.072507381,-7.015738487,10.5114524
16.79182442,-0.4934639931,8.477859497,-4.514967442,9.617824045
16.8101752,2.088579655,9.297653198,-2.939724445,9.972487141
16.82851317,3.04075098,9.736376762,-2.566759586,10.51814878
16.84685119,2.479718685,10.10570335,-2.673866749,10.74354729
16.86518916,1.304686069,10.05511665,-3.022142649,10.58021374
16.88352718,0.6027703285,9.518777847,-1.990180969,9.743268654
16.90185239,-0.2803407907,8.784227371,-3.989491224,9.651801992
16.92020317,-3.37067461,6.381155968,-18.71683693,20.05992481
16.93854114,-3.297863722,1.317109108,-5.578876495,6.613209847
16.95686635,3.079080105,-5.743227959,6.349985123,9.098775343
16.97521713,0.9554512501,-11.43588543,20.08947372,23.13610419
16.99355515,-12.34501266,-37.42145538,-14.67469311,42.04891531
17.01188036,-19.16260529,-26.78429413,-2.357873917,33.01762291
17.03023114,-2.716965437,-10.83326817,6.305704117,12.82589197
17.04856911,0.07168936729,-10.1934824,-5.491938591,11.57901603
17.06689437,-2.364901781,-16.25086975,-2.05996418,16.55073958
17.08524515,-5.813342094,-20.2744751,-1.527267814,21.1466743
17.10358312,-5.075144291,-18.06053543,-1.38980329,18.81147476
17.12192114,-5.219172955,-16.00883102,-0.3512625694,16.84178798
17.14025911,-3.817698002,-14.62899303,-0.4560916424,15.12581485
17.15859713,-2.174778938,-10.90606403,-0.518440485,11.13286471
17.17692234,-1.099786878,-5.718341827,-0.401473403,5.836963708
17.19527312,-0.6725660563,-0.5107240677,-1.875774741,2.057113282
17.21361114,-0.5925509334,4.673658371,-2.396022797,5.285368901
17.23193635,0.1666509509,8.161507607,-0.7973432541,8.202056767
17.25028713,1.660924911,11.71192455,-1.467823505,11.91983029
17.26862515,-0.2130023688,14.9251442,-7.619474888,16.75892887
17.28695036,-4.465719223,14.01213455,-13.30788612,19.83386992
17.30530114,-4.126813412,9.959173203,-10.36031723,14.95165185
17.32363916,2.048049688,8.76361084,-4.187571526,9.926285194
17.34196437,5.58645153,8.692026138,-0.04302024841,10.33255098
17.36031515,6.44892025,8.201885223,1.254581928,10.50873301
17.37865312,4.63155365,8.095240593,0.6943814754,9.352345968
17.39697838,-0.1460235715,8.100185394,-0.7876563072,8.139700779
17.41532916,-3.458358049,8.793245316,-4.419344902,10.43129968
17.43366713,-2.939506531,9.221081734,-2.982569218,10.12742643
17.45200515,-0.9789153337,9.389972687,-2.450868607,9.753800245
17.47034317,0.6046235561,9.230818748,-3.097127438,9.755295115
17.48868114,2.237571716,8.30254364,-2.97131753,9.097674755
17.5070064,3.295086861,7.784588337,-2.161813021,8.725299338
17.52535718,3.232867718,8.243154526,-1.914297104,9.05900456
17.54369515,3.105678558,8.496365547,-3.16361165,9.583418257
17.56202041,2.552344799,8.88295269,-5.473601341,10.74158387
17.58037119,0.6131823063,8.179391861,-12.39429569,14.8626044
17.59870916,-1.348993063,5.105381489,-6.213632107,8.15438081
17.61703442,2.793578625,0.08655548096,1.049878836,2.985601942
17.6353852,1.839748144,-5.373076439,15.44774437,16.4586582
17.65372322,-13.57787609,-33.67930603,-3.708096981,36.50211442
17.67204843,-27.76815414,-38.04512787,-7.172421932,47.64394794
17.69039921,-3.703370571,-10.7536459,-2.578118801,11.66201313
17.70873723,4.360436916,-3.114630699,-0.06036949158,5.358915839
17.72706244,5.429061413,-8.57779789,0.07015776634,10.15176076
17.74541322,-0.4566943645,-22.33563995,0.6645174026,22.35018938
17.76375124,-5.048171997,-20.9734726,-0.1735725403,21.57314814
17.78207645,-3.373435974,-15.35361195,-2.113378525,15.86126851
17.80042723,-4.08798027,-15.27276325,-1.251553178,15.85986335
17.81876525,-2.020787001,-14.55574131,-1.056041121,14.7332416
17.83709046,0.4537029266,-10.23449612,-2.233406067,10.48517333
17.85544124,1.371151686,-5.076518059,-3.170382738,6.140229577
17.87377926,0.9128884077,-0.2154350281,-5.3582201,5.439696696
17.89210447,-0.2686892748,3.918178558,-2.735136747,4.785947155
17.9104553,0.3667389154,8.436786652,0.6701815128,8.471305076
17.92879327,0.07671311498,11.89062786,-5.209300995,12.9819002
17.94711853,-4.925700188,14.35650444,-11.01918602,18.75617772
17.96546932,-8.017170906,13.24417877,-9.665100098,18.2509578
17.98380734,-3.342232704,11.08896923,-5.373506069,12.76754971
18.00213254,2.087958574,9.950548172,-3.34201169,10.70243066
18.02048332,5.115375519,9.257105827,0.8193256855,10.60812752
18.03882135,7.091209412,8.37346077,2.54268384,11.26345139
18.05714655,7.350541592,7.620676994,0.8182823658,10.61954639
18.07549734,3.666725636,7.095545769,-2.344504356,8.323962237
18.09383536,0.7200836539,6.814032555,-5.976967812,9.092508144
18.11217338,1.208922505,7.660064697,-4.486078739,8.958961282
18.1305114,1.83606863,8.754126549,-3.214936972,9.504825058
18.14884937,1.840259194,8.726151466,-4.016462326,9.780809932
18.16717463,0.4874059558,8.515024185,-3.758705139,9.32046489
18.18552541,-1.265782237,8.675375938,-2.624467134,9.151621719
18.20386343,-2.269906044,8.878509521,-2.624807835,9.532576826
18.22218864,-3.997999668,10.02057838,-2.285605431,11.02814512
18.24053942,-6.357358932,10.63899612,-9.158823967,15.41065565
18.25887744,-5.839747906,6.912583828,-13.22346783,16.02331339
18.27720265,-0.1051020622,-3.958227158,2.56086731,4.715575262
18.29555348,-1.594625473,-15.12953281,18.42228889,23.89197191
18.31389145,-8.910722733,-34.72655487,-2.326601028,35.92697684
18.33221671,-11.6092186,-18.47719574,-9.069592476,23.63129761
18.35056749,1.554630756,-6.865467072,0.5208239555,7.05852481
18.36890551,5.210071087,-2.580018997,-2.525081635,6.338562614
18.38723072,-0.2222414017,-9.059965134,0.7824671268,9.096406668
18.4055815,-10.24171448,-25.20018768,-1.865960479,27.26580245
18.42391952,-8.949982643,-20.9267025,0.2907683849,22.76210915
18.44224478,-4.162679195,-12.4945755,-0.2104516029,13.17143139
18.46059557,-2.084176779,-12.99439144,-1.232145548,13.21802498
18.47893359,0.1117780209,-14.61839867,-1.119752169,14.66164789
18.49725879,1.685893774,-13.55737114,-0.3435964584,13.66611168
18.51560958,1.472135067,-9.216814995,0.2042353153,9.335875554
18.5339476,0.1184532642,-4.771052361,-0.6998699903,4.823566088
18.5522728,-1.012893319,-1.070165634,-3.137776375,3.466532553
18.57062364,-1.895393848,4.071280956,-2.286040783,5.039229001
18.58896166,-1.424166918,9.947669983,-0.8061453104,10.08138184
18.60728687,-0.5662100315,14.03251648,-5.869779587,15.22124913
18.62563765,-4.722430229,15.50016975,-11.49011898,19.86402386
18.64397567,-5.099131584,13.62139511,-13.46881485,19.82303007
18.66230093,0.7194287181,10.29423714,-4.61150074,11.30286844
18.68065171,4.402209282,9.285615921,1.209237576,10.34719117
18.69898973,5.113760471,8.558666229,2.80314064,10.35658782
18.71731494,3.608821392,8.621853828,2.227089405,9.608323605
18.73566572,0.7402684093,8.573740959,1.377786398,8.715235322
18.75400374,-1.880640507,8.501829147,-4.291013718,9.707250192
18.772329,-1.839041233,8.306571007,-6.024775982,10.42492783
18.79067978,0.9987988472,8.795433044,-3.102038145,9.379759178
18.8090178,2.842958927,8.841840744,-1.92209053,9.484460723
18.82735582,3.221657276,8.888896942,-1.253483415,9.537441225
18.84569385,2.428607464,9.138822556,-1.488765359,9.572493625
18.86403182,1.299226761,9.178245544,-2.259892464,9.541241816
18.88236984,0.5323233008,9.062479973,-3.035995245,9.572313121
18.90070786,0.5233546495,8.963912964,-4.128458977,9.882803713
18.91904588,0.2273993492,8.563794136,-12.63622761,15.26645108
18.93737114,0.1821672916,6.522463799,-13.45880222,14.95710788
18.95572192,3.219322443,2.121872425,2.937869072,4.847417278
18.97405994,3.875016928,-3.105859756,12.79049969,13.72075083
18.99238515,-1.364263296,-18.09238815,6.384591103,19.23431119
19.01073598,-24.1114521,-46.85997772,-1.995471358,52.73709833
19.02907395,-19.50294113,-22.85342026,-11.94148064,32.33021018
19.04739921,0.9474306107,-7.784061432,7.798069954,11.0588938
19.06574999,4.952763081,-3.424440384,-3.278635502,6.856099826
19.08408801,5.337425709,-11.018507,0.7399343252,12.26552537
19.10241327,0.3823809624,-22.45030594,0.1027992964,22.45379744
19.12076405,-3.905317783,-23.18128586,-1.535736799,23.55805613
19.13910208,-4.753214836,-15.72838879,-3.266696692,16.75250943
19.15742734,-4.030725956,-13.60785675,-1.473337054,14.26854019
19.17577812,-0.6407709122,-10.51695919,-1.303403258,10.61677343
19.19411614,1.673915029,-5.822580338,-2.742444515,6.65022069
19.2124414,2.039633512,0.06982707977,-3.911225796,4.411651381
19.23079218,1.045392156,4.622355461,-3.287755489,5.767872305
19.2491302,0.7906678915,8.637624741,-0.6113042831,8.695252141
19.26745541,0.8169807196,10.99337006,-3.026526451,11.43160116
19.28580624,-4.423108101,12.88805962,-10.32722378,17.0972956
19.30414426,-8.554677963,12.04210186,-9.769309998,17.70971909
19.32246947,-5.809548855,11.05405617,-4.29958725,13.2071748
19.3408203,-0.5871517658,10.93060493,-3.407371759,11.46442557
19.35915833,3.462179422,10.47503853,-1.235094786,11.10128721
19.37748353,5.562083244,9.834979057,3.911115885,11.95660531
19.39583437,6.188790321,9.513482094,4.318772316,12.14328051
19.41417239,3.996088743,8.467619896,1.656436205,9.50857996
19.4324976,-0.005964159966,7.963786125,-3.334252357,8.633606651
19.45084843,-1.677712321,7.831608772,-6.487071991,10.30683839
19.46918645,-0.634775877,7.771906376,-5.228999138,9.388711366
19.48751166,1.456500292,7.711406231,-3.39241457,8.549599743
19.50586249,2.353700161,8.025263786,-2.7182374,8.793951208
19.52420051,2.345198631,8.790380478,-3.055941582,9.597370709
19.54252572,1.858811736,9.954278946,-3.701669931,10.78170722
19.56087655,1.230039835,10.6418438,-2.994583368,11.1233703
19.57921458,-0.008447170258,10.43592739,-12.40677166,16.2122372
19.59753978,0.5087834597,4.712714195,-8.370644569,9.619575157
19.61589062,0.7602450848,-2.512970924,6.236804962,6.766884925
19.63422864,-5.750414371,-13.58149624,10.80862617,18.28525924
19.6525539,-16.55465698,-33.16366577,4.678139687,37.36001052
19.67090468,-19.37260246,-19.98752594,-7.993475437,28.96022391
19.6892427,-0.3324642181,-6.116409302,-0.6784098148,6.162891779
19.70756796,5.2225914,-7.827976227,4.830799103,10.57777352
19.72591874,2.714230537,-11.84875679,-1.35878849,12.23136914
19.74425676,-6.500349998,-24.90755463,-2.206167936,25.83617628
19.76258202,-8.871933937,-21.41704369,-3.165919065,23.39709417
19.7809328,-4.770277977,-15.38682938,-2.160997391,16.25361437
19.79927082,-2.540026903,-13.99882317,-0.3899586201,14.23273882
19.81759609,-0.08241224289,-13.34855366,-1.683399796,13.45453498
19.83594687,1.342407942,-10.45032883,-0.624374032,10.55468022
19.85428489,1.657717586,-6.214737892,0.492259264,6.450838228
19.87261015,1.431888938,-1.306925774,-2.631672621,3.268648297
19.89096098,0.7472802401,3.216451168,-2.511324406,4.148582426
19.909299,0.4261840284,7.992413521,0.9767301083,8.06314507
19.92762426,1.30346787,12.62041187,0.04425787926,12.68762322
19.94597504,-1.3706429,15.13088799,-6.470441341,16.51329901
19.96431307,-5.936183453,14.39326191,-10.90515614,19.00859523
19.98263832,-6.544704437,11.85126305,-7.209532738,15.33828394
20.00098911,-2.795032978,8.986116409,-3.675928116,10.10321459
20.01932713,0.357883513,8.082085609,-2.279977083,8.405146275
20.03765239,2.948797464,8.002082825,0.06157159805,8.528336712
20.05600322,4.493567467,8.244008064,2.244259834,9.653627284
20.07434124,4.609843731,7.884782314,0.9705569744,9.184902406
20.0926665,2.126296043,7.859083652,-2.03416276,8.391909726
20.11101728,0.2217227221,8.702078819,-4.147705555,9.642551432
20.1293553,0.5980674624,9.328634262,-3.727680445,10.06363271
20.14769333,1.698301792,9.497429848,-2.690983295,10.01632636
20.16603135,2.755491734,9.37338829,-1.760642648,9.927386628
20.18436942,3.601348877,9.422357559,0.5294090509,10.10103013
20.20269463,3.745859861,10.36254501,-0.3683133125,11.02494716
20.22104546,2.692043304,11.02457333,-6.030627251,12.85133375
20.23938348,0.6245586872,9.309861183,-3.112500668,9.836221287
20.25770874,-1.81703639,6.838644981,-6.111474514,9.34980252
20.27605958,-1.034436226,-0.8043813705,-6.635841846,6.763984381
20.2943976,-2.206319094,-9.143957138,11.56520176,14.90750441
20.3127228,-4.242707253,-26.25992775,5.779308319,27.22103552
20.33107364,-10.36127663,-29.3281517,-0.5122451782,31.108824
20.34941166,-7.915141106,-7.526068687,-13.35829639,17.25500655
20.36773692,-0.3383250237,-5.601149559,8.00607872,9.776739573
20.38608775,1.011898041,-8.484887123,-4.337897301,9.583037104
20.40442577,-0.522292614,-15.60012341,2.116783381,15.75174313
20.42275103,-4.714096546,-16.74691963,-0.1523801088,17.39842645
20.44110182,-5.192008972,-13.32388973,-1.953957319,14.43263469
20.45943984,-3.277797937,-13.69621181,-1.867399096,14.20624358
20.47777791,-2.815068007,-15.13211155,-1.801133156,15.49675735
20.49611593,-2.235047102,-14.21720123,-0.5681217909,14.40302082
20.51445395,-0.6854979992,-11.3448391,-0.1632603407,11.36670293
20.53277921,1.233998656,-8.509781837,-0.1625632048,8.600323622
20.55113004,2.99412632,-6.085500717,0.4936778545,6.8001345
20.56946807,3.211577415,-2.062525749,0.5280878544,3.853195913
20.58779332,0.3419576287,2.898934841,-1.925585508,3.496946923
20.60614416,-1.817373514,6.323833466,-0.3762686253,6.590545825
20.62448218,-2.109262466,11.0147047,-0.1718254089,11.21615941
20.64280744,-3.573517323,15.72331715,-7.909630775,17.9598159
20.66115822,-6.36843586,15.67632008,-10.60419083,19.9687969
20.67949629,-5.944012642,13.63128662,-6.516787052,16.23612561
20.69782155,-1.527459621,9.249340057,-3.721776485,10.08637916
20.71617234,2.4917624,7.668259144,-1.833420277,8.268767022
20.73451041,4.813458443,6.989616394,1.090711832,8.556504649
20.75283567,4.973689079,7.458573341,3.282603264,9.546904395
20.77118645,2.986356258,7.766791821,3.225079536,8.924265623
20.78952452,-0.3037781715,8.755990028,-0.1206712723,8.762089027
20.80784978,-2.548378944,9.517465591,-5.884187222,11.47606404
20.82620056,-1.315198779,9.613044739,-6.799556732,11.84796813
20.84453864,1.840337515,9.286875725,-3.078660488,9.955453445
20.8628639,3.481458187,9.418653488,-0.7702159882,10.07098889
20.88121473,3.822700262,9.583522797,-0.2240102291,10.32022902
20.89955275,3.013240337,9.361116409,-0.3927872181,9.841971325
20.91787801,1.604378104,9.199465752,-2.298405886,9.61700935
20.93622885,-1.249019623,7.75225544,-14.20272541,16.22883001
20.95456687,-1.142259359,3.58350563,-13.09340286,13.62290232
20.97289213,3.538390636,-1.762905121,1.670788527,4.291803474
20.99124296,0.2709400654,-3.934388161,11.26018429,11.93082432
21.00958103,-5.656652451,-18.16919136,3.851802111,19.41529323
21.02790629,-18.61107826,-39.00834656,3.345383644,43.34991265
21.04625713,-14.5804081,-21.00953102,-10.2856369,27.56416189
21.06459515,1.704070807,-13.8683157,2.055510283,14.1230011
21.08292041,4.252376556,-9.964470863,0.7700307369,10.86123075
21.10127124,2.136148453,-13.82593918,-1.919702888,14.12108295
21.11960926,-4.581794262,-19.09501266,-0.9508225322,19.66002062
21.13793458,-5.585272312,-18.52380371,0.548104167,19.35528323
21.15628536,-4.908252716,-14.58162022,-1.042549253,15.42081392
21.17462343,-3.032859564,-10.28654575,0.309388876,10.7287922
21.19294869,0.04104709625,-5.795721054,0.03565990925,5.795976107
21.21129952,2.077973604,-1.121207237,-0.5504459143,2.424473277
21.2296376,1.778425813,4.394900799,-1.971084476,5.134503424
21.24796286,-0.2473601103,7.523337364,-1.10976541,7.608769374
21.26631369,-0.325145781,10.26640606,-0.7561061382,10.29934511
21.28465171,-0.3886044621,13.05453014,-5.942202568,14.34857282
21.30297697,-3.391705513,13.14707851,-8.976369858,16.27650317
21.3213278,-5.340538025,11.5704174,-7.939699173,15.01448395
21.33966588,-3.026259184,9.990127563,-3.436354399,10.98951432
21.35799114,0.4516559243,8.930483818,-1.282783747,9.033441672
21.37634197,3.584000111,8.072175026,-1.003706336,8.888897167
21.39468004,5.189004421,8.201444626,0.6818766594,9.729050139
21.4130053,4.475012779,8.509306908,2.123736858,9.846029741
21.43135614,1.277524114,8.788832664,0.2963850498,8.88614042
21.44969421,-1.03369832,8.678359032,-1.961881995,8.957199823
21.46801947,-1.465856314,8.582740784,-3.716123581,9.466876389
21.4863703,-0.1573702097,8.874134064,-4.503777027,9.952840211
21.50470838,1.784281015,8.990431786,-3.143977165,9.690000766
21.52303364,3.053195715,9.097150803,-0.5067522526,9.609211968
21.54138447,3.86937952,9.784572601,-0.2230367661,10.52424364
21.55972254,3.949927807,10.47359467,-6.565451622,12.97702855
21.5780478,2.659111738,8.057626724,-11.7606163,14.50201088
21.59639864,1.528165102,5.102915764,3.378432274,6.307839765
21.61473671,2.72000432,-1.801150322,-4.4601717,5.52591147
21.63306202,-1.258646011,-9.620520592,11.63467884,15.14940124
21.65141286,-9.696423531,-36.35620499,-0.169402957,37.62742308
21.66975088,-22.64422417,-40.64889526,1.83136034,46.56659162
21.68807619,-10.00407982,-13.26434708,-10.29910755,19.54727942
21.70642702,-0.7907953262,-10.73919487,7.039538383,12.86509869
21.7247651,-0.2862436771,-15.30958939,-3.404243469,15.68611922
21.74309036,-2.665145397,-22.02185059,-1.225523114,22.21636357
21.76144119,-1.630764246,-19.19298553,1.725080729,19.33923445
21.77977926,-0.01796746254,-14.75631237,0.6475387812,14.77052416
21.79810458,0.4729225636,-9.982501984,0.7967660427,10.0254096
21.81645541,1.464348078,-5.273343086,1.89879775,5.792917701
21.83479348,1.410660505,-0.3054933548,1.672779202,2.20940705
21.85311874,-0.59069103,5.298706532,-3.236857414,6.237183076
21.87146958,-1.902339697,8.846412659,-3.319314003,9.638244586
21.88980765,-1.348052025,11.43802643,-6.621678352,13.2850411
21.90813296,-6.206473827,12.51186085,-14.57387924,20.18576071
21.92648379,-6.773147583,10.02823257,-9.183355331,15.19128013
21.94482187,-1.105622292,9.573633194,-0.9326798916,9.682290275
21.96314718,2.113154888,10.87354469,1.493284345,11.17717746
21.98149801,3.587557316,10.7569437,3.621345043,11.9036358
21.99983609,3.748004913,10.25962543,3.1830194,11.37712914
22.01816135,1.354547977,9.540765762,0.937101841,9.681899164
22.03651223,-1.837525487,8.672457695,-4.992774963,10.17427266
22.0548503,-1.931252718,8.149504662,-5.334694862,9.929911005
22.07317556,0.7587772608,8.40536499,-2.363278866,8.764187957
22.09152645,2.987428427,9.039377213,-1.50188446,9.637983499
22.10986452,4.559075356,9.301784515,-1.162436008,10.42399255
22.12818978,5.181962013,9.70484066,-1.458857298,11.09796951
22.14654067,4.663332462,10.15686798,-2.505674601,11.4536912
22.16487874,3.28242588,10.21186733,-2.310884953,10.97254498
22.183204,2.086890936,9.942265511,-2.263962507,10.40813545
22.20155489,-0.3628002405,8.337996483,-12.54979706,15.0715366
22.21989296,-3.724882364,4.737820625,-12.83043957,14.17539673
22.23821822,-0.378878355,-0.7377109528,1.697915316,1.88962501
22.25656911,1.146300554,-5.509856224,13.24014473,14.38658935
22.27490718,0.3987059593,-15.56599712,13.07768059,20.33432965
22.29323249,-12.58463955,-34.65723801,-4.726686001,37.17309322
22.31158332,-22.29240036,-24.20717239,-5.735301971,33.40407158
22.3299214,-5.970312119,-12.2767458,0.9326956272,13.68331229
22.34824671,0.03581857681,-12.01957703,4.768371582e-06,12.0196304
22.36659754,1.184910774,-20.77928925,-4.586228371,21.31235242
22.38493562,-0.0945892334,-20.64272118,-1.201515675,20.67787524
22.40326093,0.8618335724,-17.30566406,-0.8750844002,17.34919417
22.42161182,0.000833272934,-14.4855051,-0.3944329023,14.49087424
22.43994989,-0.5558502674,-11.10052395,0.9521160126,11.15513901
22.4582752,-0.5060670376,-7.006293297,0.806802392,7.070726957
22.47662603,-0.7006200552,-3.010080338,-0.01961123943,3.090604585
22.49496416,-1.631315231,1.457342148,-3.36697197,4.01516323
22.51328942,-2.515180588,5.846437454,-3.322052002,7.179344942
22.5316403,-1.330927849,9.288128853,-0.4144164324,9.392148184
22.54997838,-0.07200592756,12.25131798,-4.230051041,12.96122328
22.56830369,-3.138329983,13.85671425,-8.227967262,16.41819388
22.58665458,-5.891814709,12.10080433,-6.125740051,14.78741482
22.60499265,-3.990840673,10.92553043,-5.187392712,12.73589681
22.62331796,0.9401342869,10.53455353,-2.114754438,10.78577104
22.64166879,4.608999252,9.299539566,2.493219852,10.67428946
22.66000692,6.143860817,8.864655495,3.516933441,11.34451249
22.67834499,5.611899376,8.265672684,1.768520832,10.14605467
22.69668307,1.705420971,7.934440613,-1.505904198,8.25418415
22.71502119,-1.209132433,7.844645023,-5.040714264,9.402619692
22.7333465,-1.514770746,8.110221863,-5.383529663,9.851528851
22.75169734,0.08424949646,8.84219265,-3.810203075,9.628557333
22.77003546,1.57076633,9.466644287,-2.258829117,9.858345191
22.78837353,2.120340824,9.707619667,-1.891398549,10.11489561
22.80671161,2.104188442,10.18815041,-2.576209307,10.71740977
22.82504973,2.685796976,10.95751476,-5.336958408,12.48053525
22.84337504,3.00895071,9.470503807,-12.71245289,16.13538612
22.86172588,3.816898823,5.542717457,-0.8188220263,6.779447097
22.880064,4.089957237,0.8032608032,0.9445441961,4.273773726
22.89838932,0.4722034931,-7.610942841,5.415156841,9.352718892
22.9167402,-8.74312973,-30.34448624,1.741026402,31.62690841
22.93507827,-16.83697701,-28.98583412,11.00983715,35.28284128
22.95340359,-10.17789078,-6.999537468,-6.341391563,13.8851083
22.97175447,-3.971154451,-11.7762785,4.799346447,13.32233197
22.9900926,0.8165178299,-14.49952698,3.311249256,14.89521251
23.00841791,-2.853334904,-21.23864937,-0.3238312006,21.43190644
23.02676874,-6.229772091,-20.49489021,-1.866807699,21.50198959
23.04510687,-4.244646072,-17.39739609,-2.923682213,18.14481547
23.06343218,-3.143219233,-15.1288166,0.9986938238,15.48413086
23.08178306,-1.783649445,-11.58173847,0.8351072073,11.74799878
23.10012114,-0.7231858969,-8.374308586,0.4894679785,8.419716209
23.1184465,-0.2238568068,-4.588775635,1.85961616,4.956323835
23.13679734,0.1401028633,0.5791501999,-0.7636814117,0.9686346396
23.15513546,-1.03243053,5.397600651,-1.975074291,5.839599647
23.17346077,-0.8045859337,9.571405411,-0.7077902555,9.631205901
23.19181166,-2.036078691,13.47072792,-7.941857338,15.76956642
23.21014978,-6.357357025,12.77502155,-11.10930347,18.08407553
23.2284751,-4.645615101,10.77746773,-6.457685471,13.39541906
23.24682598,1.566772223,11.43994808,-4.042140007,12.23380902
23.26516405,5.496425629,11.44877243,0.6004163027,12.71399169
23.28348942,7.561502457,9.918683052,2.867548466,12.79763365
23.3018403,7.522706985,8.703932762,2.970617533,11.88167221
23.32017838,2.975984573,7.814819336,1.364381313,8.472863849
23.33850374,-1.806731582,7.886984825,-1.978762865,8.329724552
23.35685463,-3.213655949,8.294730186,-3.066049576,9.409080371
23.3751927,-2.388137817,8.86183548,-2.073068619,9.409194642
23.39353083,-0.438579917,9.447986603,-1.694663286,9.608781756
23.4118689,2.009782076,9.609641075,-1.633618951,9.952544221
23.43020702,3.903090954,9.912822723,-1.781300068,10.8014445
23.44853234,4.38701725,10.07963848,-1.742204905,11.1301532
23.46688327,3.522230148,10.20793152,-1.599975824,10.9164048
23.48522135,2.44954896,10.10122204,-2.795591116,10.76337802
23.50354671,0.814873457,9.034805298,-13.15395737,15.9786833
23.5218976,-0.8655235767,7.16186142,-16.8231926,18.30467698
23.54023567,0.7409536839,4.646841049,8.441747665,9.664639038
23.55856103,5.510023117,-3.705668449,9.213162422,11.35670266
23.57691192,1.185279131,-16.22286606,8.456985474,18.33321775
23.59525004,-22.10801697,-43.95180511,0.4696594477,49.20107892
23.61357536,-16.40373039,-20.01401138,-11.62047195,28.36685374
23.63192624,3.347908974,-6.626927376,9.669307709,12.19098735
23.65026437,3.232988358,0.6264677048,0.8195461035,3.393572059
23.66858968,-3.966314793,-9.045623779,0.1958789825,9.878933706
23.68694056,-8.487724304,-22.7428112,0.202575922,24.27587202
23.70527869,-4.900826454,-19.64243317,2.845813036,20.44362816
23.72360405,-2.667412043,-14.23714733,0.2558858395,14.48712976
23.74195494,-1.370319128,-13.09496498,-0.7219272852,13.18624516
23.76029307,0.9131352901,-13.70610142,-1.096137047,13.78015053
23.77861838,2.335611582,-12.21261311,-1.308572054,12.50261417
23.79696926,2.739545822,-7.375172615,-0.8800537586,7.916613988
23.81530739,1.633330703,-2.672338486,-1.409495831,3.434507339
23.83363275,-0.07082247734,1.065611839,-2.416580915,2.642046127
23.85198364,-1.134824872,6.131870747,-0.03252744675,6.236082454
23.87032176,-1.475136995,10.58321667,3.091975212,11.12388488
23.88864708,-2.384747028,12.36465168,-1.655234933,12.70084376
23.90699801,-6.761363506,13.33284664,-10.37870789,18.19885748
23.92533609,-8.202487946,14.03174973,-9.550377846,18.85153908
23.94366145,-2.196172476,11.5762558,-4.116589069,12.48115289
23.96201234,3.510816097,9.426058769,-2.844861746,10.45321252
23.98035046,6.829445839,8.965706825,0.1870188713,11.27209854
23.99867583,8.260761261,8.67222023,3.565523148,12.49642091
24.01702671,6.792601109,8.453463554,3.025610209,11.25854311
24.03536484,2.15129137,8.115649223,1.230826735,8.485679191
24.0536902,-1.42946744,8.127737999,-3.083683014,8.809801534
24.07204109,-2.373560905,7.700478077,-6.883401871,10.59775331
24.09037921,-0.06073951721,8.257214546,-5.802690506,10.09239805
24.10870452,1.844842434,8.947620392,-2.867996454,9.575424687
24.12705546,2.648202419,9.20079422,-2.133764744,9.809207018
24.14539359,2.576460838,9.119633675,-1.557729125,9.603769512
24.16373171,2.476123333,9.566094398,-0.9821869731,9.930057404
24.18206984,2.484745979,9.739116669,-6.621897697,12.03635681
24.20040796,1.640376091,6.769774914,-12.05992508,13.92704129
24.21873327,2.23546958,2.005681992,6.427655697,7.094705226
24.23708421,4.897803307,-2.375529289,4.460120678,7.037349863
24.25542234,-1.520794392,-11.86156845,15.93407154,19.92245611
24.2737477,-24.1939888,-42.40639496,-6.476209164,49.25030673
24.29209859,-21.57601547,-27.69868851,-8.428653717,36.10794915
24.31043671,1.189365149,-8.193348885,7.212329865,10.98013012
24.32876208,5.782344818,-0.9584207535,-2.062831163,6.213642599
24.34711296,5.862278461,-0.2955875397,2.4789114,6.371709542
24.36545109,-2.336780787,-13.32547569,-0.4303402901,13.53565808
24.38377645,-7.372728348,-26.53901672,1.760451674,27.60028482
24.40212734,-5.78291893,-15.96695328,1.285213947,17.03048805
24.42046551,-3.692359209,-11.25033951,1.409274697,11.92433272
24.43879082,-1.555962086,-9.69108963,1.340354681,9.906300364
24.45714176,0.8533719778,-8.997036934,0.06530940533,9.037653603
24.47547989,2.061802387,-7.067200661,-0.2234722376,7.365208354
24.49380525,2.48191309,-3.997666359,-2.356694221,5.262626393
24.51215614,0.9534515142,0.1328659058,-3.843335629,3.962064095
24.53049426,-0.8796352744,5.340137959,0.2213209867,5.416623913
24.54881963,-0.9078397155,10.09868908,1.926184535,10.32075002
24.56717051,-1.960341215,12.85056686,-4.672462463,13.8134685
24.58550869,-6.297652245,12.33971786,-8.907999992,16.47062612
24.60383405,-7.594700336,12.49788475,-8.312542915,16.82185977
24.62218494,-2.591415167,11.81502914,-3.483981609,12.58763179
24.64052306,1.959749341,10.20293045,-1.433835983,10.48791175
24.65884843,4.57929039,9.057639122,-1.033078909,10.20186154
24.67719932,5.640625477,8.860653877,2.530093431,10.80412957
24.69553749,4.933218956,8.698765755,3.027179718,10.44839662
24.71386286,1.906090021,7.948272228,-0.05715382099,8.173828793
24.73221374,-0.9682859182,7.087224007,-3.84704113,8.121948485
24.75055187,-1.191305041,6.963221073,-6.308796883,9.471355422
24.76887723,1.742454052,8.515751839,-5.467409611,10.26872647
24.78722817,3.916471958,9.774249077,-2.276904106,10.7730678
24.80556629,4.944877148,10.44105721,-0.4127512276,11.56018379
24.82390442,4.571946144,10.75127411,-0.3390995264,11.68792432
24.84224254,3.498963594,10.66954422,-6.081212521,12.76961494
24.86058072,2.438698053,8.053368568,-8.488016129,11.95200449
24.87890609,1.15716815,4.626992702,2.280028343,5.286457116
24.89725697,0.3926746845,0.470788002,3.649554253,3.700686557
24.9155951,-0.8317768574,-11.37507629,7.404271126,13.59806767
24.93392046,-11.10033989,-32.74051285,1.18778193,34.59146648
24.9522714,-20.56444168,-23.9000473,3.463223696,31.71911791
24.97060952,-9.065065384,-9.669481277,-6.018511772,14.55667416
24.98893489,-1.183643579,-5.549515724,3.756418228,6.805058031
25.00728582,2.042585611,-2.487970352,0.5671194792,3.268604742
25.02562395,-1.193543434,-6.237618446,2.293139458,6.752104737
25.04394932,-4.41669178,-16.75900269,0.577901721,17.3408566
25.06230025,-4.508934975,-18.09112167,0.9988180399,18.67128318
25.08063838,-5.525972843,-14.02357578,0.6109040976,15.08543196
25.09896374,-4.031627178,-12.46989155,0.4963134527,13.11482139
25.11731463,-0.9618923664,-11.66981411,-0.002550244331,11.7093896
25.1356528,2.142294884,-9.743925095,0.5335437059,9.990904489
25.15397817,4.537962914,-6.869296074,0.9069154859,8.282682636
30.17865223,-1.254535437,10.43113327,0.5275617242,10.51954
30.19699046,-0.7580907941,14.73060226,0.0008170008659,14.75009645
30.21531593,-2.071153641,13.17603874,-6.068749905,14.65357976
30.23366697,-5.53925705,9.992243767,-9.264925003,14.70942349
30.2520052,-3.108734846,8.903495789,-4.89422226,10.62496499
30.27033067,1.236320734,10.10753536,-1.366000175,10.27407984
30.28868171,4.182014465,11.01623821,1.096588612,11.83424083
30.30701994,5.167312622,10.80770779,3.386446714,12.44892319
30.32535817,3.139750957,10.03637218,1.819496632,10.67227111
30.34369645,-0.4385031462,9.055492401,-1.703227758,9.224706631
30.36203468,-1.983114243,8.515334129,-3.73964572,9.509395751
30.38037291,-0.1745413393,7.49803257,-2.16880703,7.807347887
30.39871119,1.087535501,7.822732449,-1.766436577,8.093094254
30.41704942,1.354956627,8.465667725,-1.922603846,8.786344122
30.4353877,0.8797043562,9.155415535,-1.65139401,9.344657059
30.45372593,-0.06299012899,8.976906776,-1.0216012,9.035070118
30.47206416,-1.311465502,8.358645439,-0.1494648457,8.462224003
30.49038968,-2.16719532,7.690413475,1.775056481,8.184743153
30.50874067,-2.319477797,8.381340027,-0.9398653507,8.747010048
30.52707895,-2.373127699,8.503475189,-14.52058983,16.99377399
30.54540442,0.435043931,4.665986061,-0.8746067286,4.767140241
30.56375546,5.088829041,-1.092033386,7.607963562,9.217907977
30.58209369,5.298574448,-9.927426338,16.94510841,20.34122376
30.60041921,-13.86158276,-39.79118729,-2.321112394,42.200351
30.61877025,-22.34374428,-25.04350662,-13.91976261,36.33428028
30.63710848,-1.415201902,-7.031829834,9.67473793,12.04366976
30.65543395,1.159465313,0.5684356689,-1.848913193,2.255207067
30.67378499,-0.7359266281,-3.764348984,2.524829865,4.592023205
30.69212327,-6.916083336,-17.88980675,2.590910912,19.3543332
30.71046155,-7.343017578,-19.98111725,4.878252506,21.8394666
30.72879978,-3.065779209,-10.28936863,0.5609380603,10.75103532
30.74713806,-1.152299404,-8.37820816,-1.007845283,8.516919514
30.76546353,-0.3333685398,-13.23201656,-1.555277348,13.32727596
30.78381458,-0.5506434441,-18.94560242,-0.3949115276,18.95771648
30.80215286,-1.404099584,-15.03275776,1.391280174,15.16215559
30.82047833,-0.9762898684,-7.275774956,1.225587606,7.44258746
30.83882937,-0.5098470449,-1.141428947,0.866689086,1.521168637
30.85716765,0.03263929486,4.771910667,-1.048048496,4.885755048
30.87549312,-0.6132385731,11.22382259,0.4952102005,11.25146605
30.89384416,-1.480753183,14.40600014,3.136244774,14.81760781
30.91218244,-6.558326721,11.73034477,-5.965678215,14.70380748
30.93050796,-11.25903893,9.289070129,-14.11397362,20.30411369
30.948859,-4.137693882,9.281315804,-9.461740494,13.88480705
30.96719723,3.861514091,9.851496696,-1.606195331,10.70248297
30.98552275,7.332192898,11.34330368,0.863083005,13.53427144
31.00387379,7.768840313,12.27815247,3.508394718,14.94713154
31.02221208,7.02908659,11.1275177,5.415975571,14.23244532
31.0405376,2.59868741,8.273813248,3.653736353,9.410576563
31.05888864,-2.704053879,7.092857361,-3.048541546,8.180106263
31.07722687,-4.579686642,7.083809376,-4.588615894,9.602566367
31.09556515,-1.52753675,7.729178429,-2.088501215,8.150791681
31.11390343,1.28778851,8.642787933,-1.144950628,8.812893648
31.13224171,2.209975243,9.230185509,-1.704602003,9.642923991
31.15057999,1.544101119,9.245732307,-1.615810513,9.512027007
31.16891827,-0.2123675048,9.316217422,-0.5828550458,9.33684781
31.18725655,-1.478585243,8.789764404,-0.1996301413,8.915493525
31.20559484,-1.557908773,8.76745224,-0.6401693821,8.927772139
31.22393312,-1.675201178,9.259524345,-11.10285187,14.55398261
31.2422714,-2.166220665,8.119785309,-8.955653191,12.28117053
31.26059692,1.005983114,3.846508026,6.742936134,7.827823052
31.27894796,3.562497854,-5.506631851,17.20606041,18.41366069
31.29728624,-14.77512646,-41.05408478,-2.127157927,43.68371595
31.31561176,-27.26791382,-37.1061821,-13.49034595,47.98330239
31.3339628,1.47440052,-6.540890694,5.49348402,8.668072141
31.35230109,9.332356453,1.329375744,-2.014868498,9.639492305
31.37062661,13.04644585,1.780132294,4.030552387,13.77040206
31.38897765,7.38788271,-7.130810738,6.775528431,12.30191279
31.40731593,-10.93422699,-26.70972824,1.288964748,28.8899348
31.42564145,-18.81633377,-19.90316772,-2.332212448,27.48871981
31.44399254,-7.108947277,-7.741294861,0.7833801508,10.53937674
31.46233083,-5.929420471,-7.366731644,-1.430433512,9.564146709
31.48065635,-3.902401447,-11.72311401,-0.08888113499,12.35589087
31.49900739,-0.9404056072,-15.49252129,2.403261423,15.70599389
31.51734567,0.4165275693,-11.48625183,3.398283005,11.98564991
31.53567119,0.3838677406,-5.188107491,1.877690554,5.53078074
31.55402228,-0.01770301163,-1.110677719,0.206692636,1.129885055
31.57236056,-0.505204916,2.959544659,-2.527754784,3.924752328
31.59068609,-1.210803866,8.326935768,-0.6221499443,8.437474494
31.60903713,0.09106552601,13.33954906,-0.9019411206,13.37031637
31.62737546,-0.245301187,14.47630787,-10.18437767,17.70155956
31.64570098,-3.414260387,10.571558,-14.02521896,17.89194734
31.66405202,-1.963403225,9.953800201,-4.770742416,11.21129225
31.68239036,1.10180378,9.223431587,1.983782291,9.498476404
31.70071588,1.610611916,9.007000923,3.068797827,9.650785278
31.71906692,1.531055689,8.930616379,3.219519377,9.615890258
31.73740525,0.4753547311,9.000390053,3.636486053,9.718899837
31.75573077,-1.773998737,8.68565464,-1.349185586,8.967049113
31.77408182,-3.312888145,8.627973557,-5.757473469,10.8887858
31.79242015,-1.229024053,8.582708359,-2.455744743,9.011329821
31.81074567,0.7458772659,8.465812683,-0.7349421978,8.530325745
31.82909671,1.184079766,8.983654022,-0.2180895358,9.063975261
31.84743504,0.9334312677,9.220556259,-0.9098786712,9.312240915
31.86577333,0.3846834302,8.899746895,-0.5090942979,8.922592288
31.88411166,0.2560445964,8.792580605,0.09378866851,8.796807878
31.90244994,0.9619275928,9.765649796,-2.649178028,10.16421983
31.92077546,1.493327022,10.52863693,-7.589862823,13.06477091
31.93912655,2.240351677,8.562689781,-3.398178339,9.480846373
31.95746484,1.651250124,3.597698212,3.56131649,5.324756759
31.97579041,2.806176424,-3.692117691,7.47857523,8.799741282
31.99414145,-0.9867455959,-21.88391304,9.022438049,23.69142683
32.01247978,-21.34640121,-37.08049393,0.2738142908,42.78676021
32.0308053,-15.86753368,-14.22968197,-0.569732666,21.32104757
32.0491564,0.1706771851,-4.466053963,-2.527187824,5.134339977
32.06749468,5.120835781,3.774137974,3.634086847,7.326231211
32.08582025,5.802556992,8.865136147,2.006321669,10.78358165
32.10417135,-0.1912112236,-0.4369773865,2.169810534,2.221618491
32.12250963,-6.624337196,-13.26755428,1.826625228,14.94143232
32.14083515,-8.773411751,-20.36078262,1.879510522,22.25009624
32.15918624,-6.048139095,-10.37334061,0.9496982098,12.04525253
32.17752458,-4.397465229,-4.763654709,-0.1961385608,6.486029368
32.1958501,-4.253224373,-4.742858887,0.5020129085,6.39035562
32.21420119,-3.865963459,-8.12460804,1.731644988,9.162615545
32.23253952,-4.342982292,-11.76864147,1.877646685,12.68416234
32.2508778,-4.371285439,-12.04039383,0.8892580867,12.84017133
32.26921614,-3.200900078,-9.023177147,0.8737114072,9.613888847
32.28755442,-1.398958087,-7.827436447,0.7221822739,7.984196409
32.30587999,-0.04236161709,-6.803891182,0.7528140545,6.845542982
32.32423109,0.1333908141,-3.526853561,0.07152718306,3.530099898
32.34256937,-0.6544399858,1.469334602,-1.947736263,2.526046797
32.36089494,-1.329592824,5.947538853,-1.752177477,6.34122712
32.37924603,-1.390566349,9.756375313,-0.2525916994,9.858211632
32.39758432,-1.115984917,12.85871506,-0.627761364,12.9223086
32.41590989,-1.619092107,14.48995876,-3.721200466,15.04751465
32.43426098,-3.124452114,12.39892673,-4.572976112,13.57967951
32.45259932,-2.147036076,11.38555908,-4.124732494,12.2985421
32.47092484,1.092788458,11.22956944,-3.170544147,11.71963167
32.48927593,3.763584375,10.0486412,-0.51553303,10.74269667
32.50761426,4.51844883,8.966121674,1.914608955,10.22122523
32.52593978,3.31645155,8.01675415,2.174782276,8.944097268
32.54429088,0.2639776766,7.441915035,0.4619420171,7.460909732
32.56262921,-2.354421139,7.979776859,-2.474141359,8.67994891
32.58096754,-2.114179373,8.238063812,-2.314440489,8.81431135
32.59930588,-0.137638092,7.942053318,-1.232131481,8.038240052
32.61764416,0.4298295975,7.705192566,-1.114864588,7.797286003
32.63598249,-0.5763337016,7.742245197,-0.6593841314,7.791617846
32.65432082,-2.035191536,8.530197144,-0.7112103701,8.798413953
32.67265916,-2.765799046,9.789548874,-6.305065155,11.96823956
32.69098468,-1.875802994,9.386967659,-15.22425842,17.98365489
32.70933577,3.773008823,4.513266563,-0.3216202855,5.891401384
32.72767411,5.524552345,-0.9019145966,9.956372261,11.42206099
32.74599968,2.889886856,-14.99190807,12.10637856,19.4852035
32.76435077,-16.19418335,-41.9185524,1.275637746,44.95602141
32.78268911,-19.4214859,-14.69981003,-10.3303709,26.45742037
32.80101463,2.400160313,-1.284567833,8.15649128,8.598792592
32.81936577,6.887665272,5.773140907,-1.685269594,9.143807874
32.83770411,8.751804352,11.20689583,3.02956295,14.53846089
32.85602963,2.197092533,4.603023529,2.875003099,5.854970882
32.87438077,-12.38381672,-16.78901291,3.717717648,21.19083046
32.89271905,-14.89796734,-35.36989594,2.261950493,38.44600616
32.91104463,-7.254687309,-10.60085011,1.522729993,12.93550221
32.92939572,-3.264309883,-2.536809921,-1.622166514,4.44100752
32.94773405,-0.980244875,-3.763896942,0.3440418243,3.904633783
32.96605963,0.7066013813,-9.312561989,1.423735738,9.447228152
32.98441072,-0.7514061928,-15.74556637,2.462631941,15.9546867
33.00274905,-2.217486382,-15.21635246,1.202824116,15.4240531
33.02107463,-2.12586832,-10.02005291,1.21319592,10.31467987
33.03942572,-0.4963433146,-6.427536964,0.552588582,6.470312377
33.05776405,0.7393838167,-2.752103806,0.738551259,2.943844722
33.07608958,0.3148551583,3.49880743,-0.7353332043,3.589080958
33.09444072,-0.9162895679,7.950427055,0.2706448138,8.007629209
33.11277905,-1.472501159,11.10125542,-0.210675627,11.20046944
33.13110458,-0.5238054395,13.95617485,-1.200226784,14.01747955
33.14945572,-1.652816534,13.301754,-6.258255005,14.79304626
33.16779405,-5.029116154,10.01835251,-7.355185509,13.40739162
33.18611963,-4.47341156,8.164697647,-3.973747015,10.12246828
33.20447072,-0.899744153,9.178951263,-1.747005701,9.386943845
33.22280905,2.556801796,9.903717041,0.1991622448,10.23037205
33.24113463,4.905779839,10.05378342,2.5645051,11.47701717
33.25948572,4.546390057,10.13355446,2.443359613,11.37227307
33.27782405,0.7895625234,9.193142891,0.6332957745,9.248694434
33.29614963,-2.83860755,8.578539848,-2.197804928,9.299429297
33.31450072,-3.244755268,8.135782242,-3.409580708,9.399182413
33.33283905,-0.7572252154,7.800779343,-1.981662989,8.084091574
33.35116463,1.395453453,8.194917679,-0.9142301083,8.363000825
33.36951572,2.113277912,8.628753662,0.2599642277,8.887570798
33.38785405,1.793981433,9.151752472,1.13303411,9.39450419
33.40617963,1.106312871,10.34639168,-5.178848267,11.6229178
33.42453072,-0.1666542292,9.717578888,-13.01593781,16.24419127
33.44286905,1.304401875,7.018825531,2.389846087,7.528395606
33.46119463,4.12577486,2.533202171,-3.084130764,5.740295638
33.47954577,2.820121288,-8.576880455,12.57654762,15.48178002
33.49788411,-11.73221397,-39.85358047,2.494420528,41.61940479
33.51620968,-29.7358036,-35.84487915,-8.197639465,47.28926591
33.53456077,-6.780697823,-6.780264854,9.812151909,13.71962753
33.55289911,5.003634453,2.135424614,-1.154461265,5.561400618
33.57122468,8.481714249,11.39916134,4.143969059,14.80043362
33.58957577,9.434585571,9.968362808,5.652118206,14.84338581
33.60791416,-3.461273909,-4.24654007,-0.294447124,5.486366625
33.62623968,-10.50587273,-28.51832581,3.936381817,30.64577247
33.64459082,-11.96009445,-25.47804832,1.183552265,28.17047393
33.66292916,-7.338246822,-8.004903793,1.076627731,10.91272095
33.68125473,-5.190583229,-6.138317108,-0.923815906,8.091633148
33.69960582,-3.057171345,-8.011206627,1.033260822,8.636744536
33.71794416,-1.389058113,-11.96516228,1.098861456,12.09553997
33.73626973,-0.09364449978,-13.41576004,1.172258973,13.46720379
33.75462088,0.6580392718,-10.32426357,1.233626723,10.41850608
33.77295921,0.7249115705,-5.428210258,1.409222484,5.654809582
33.79128478,0.4145998359,0.02262115479,-0.55227983,0.6909542323
33.80963588,-0.5957691669,6.626339912,-0.4525136054,6.668439855
33.82797421,-1.151414394,11.3913517,2.197727203,11.65841557
33.84629978,-0.7204337716,14.70701408,-0.848498702,14.74907584
33.86465088,-2.083079338,14.47445583,-7.629903316,16.49437831
33.88298926,-4.646429539,12.2384119,-8.518314362,15.61824936
33.90131478,-3.237735748,9.587824821,-4.986266136,11.28149669
33.91966593,0.44305408,8.153776169,-2.524684668,8.547186403
33.93800426,3.133551121,8.440536499,-0.1193315983,9.004223401
33.95632984,4.427129269,8.887119293,2.928378344,10.35160676
33.97468093,3.539532423,9.282852173,3.493059635,10.53095911
33.99301932,0.3496679068,8.907669067,0.780831039,8.94866096
34.01134484,-2.868686199,8.778181076,-2.780450344,9.644518009
34.02969598,-3.615434408,8.629130363,-3.419015408,9.961070382
34.04803432,-2.007447958,8.495392799,-2.37909317,9.047741731
34.06637265,-0.2978872061,9.079681396,-1.474711537,9.203484404
34.08471098,0.7320524454,9.573283195,-0.174581483,9.602818889
34.10304937,1.109862804,9.679619789,1.526890278,9.861958661
34.12137489,1.520381093,9.953251839,-0.5534337759,10.08390152
34.13972603,1.319186687,9.892146111,-11.84568501,15.48919176
34.15806437,2.940908909,7.801152229,-4.59401226,9.519026734
34.17638994,5.412316322,4.245688915,2.877252102,7.456381294
34.19474109,6.697892666,-1.40132618,3.452449799,7.664521566
34.21307942,2.872985363,-12.79858112,19.20226288,23.25477635
34.23140499,-15.48346806,-38.47982025,3.98201251,41.66882256
34.24975609,-28.08839798,-17.5719986,-13.98832703,35.96396153
34.26809442,-5.059552193,-1.460378647,6.881553173,8.665307165
34.28641999,5.329175472,-0.5853052139,3.671779394,6.498050271
34.30477114,4.026927948,2.312462807,3.086056232,5.575605438
34.32310947,-5.560200691,-7.902288437,1.165768981,9.732472018
34.34143504,-9.188734055,-19.6654911,-0.3159213066,21.70861995
34.35978614,-6.590797424,-16.18071938,1.806905508,17.56471456
34.37812452,-3.547345161,-10.37243557,-1.682808638,11.09066825
34.3964501,-2.363279104,-8.685775757,-0.4511528611,9.012842367
34.41480119,-1.117369175,-8.938349724,-0.2643399835,9.011797006
34.43313952,-1.515413046,-11.31973457,1.216083407,11.48528303
34.4514651,-1.667113781,-12.93377876,1.283042789,13.10374375
34.46981624,-1.18934679,-12.06982422,1.936966658,12.28198039
34.48815458,-0.08217483759,-8.762918472,2.439367056,9.096483084
34.50648015,0.715744555,-4.494801521,2.776263237,5.331338345
34.52483124,0.585539341,1.037347794,2.762419224,3.00830629
34.54316963,-0.9905489683,7.255927086,-0.1829174161,7.325511853
34.5614952,-2.850805759,10.28334045,0.8149461746,10.70225778
34.57984629,-3.201202869,12.73371315,0.7655174732,13.15223051
34.59818463,-2.683945656,14.14633369,-4.445710182,15.06939482
34.6165102,-3.946779251,12.39201927,-5.962486744,14.30700724
34.63486135,-4.309495926,9.433614731,-5.939515114,11.95168113
34.65319968,-1.139454842,8.11131382,-5.242943287,9.725236425
34.67152525,2.54083848,9.258808136,-2.378964186,9.89145383
34.6898764,5.298933506,9.718000412,2.207291365,11.28673396
34.70821473,6.131775856,9.999456406,4.624326229,12.60841769
34.72655307,4.443097115,9.518222809,3.586198092,11.09948171
34.74489145,0.2635112703,8.685432434,0.1375977397,8.690518275
34.76322978,-3.032596827,8.304901123,-5.290948391,10.30350237
34.78155536,-3.27852273,7.806538105,-4.643577099,9.656788118
34.79990645,-1.471043944,7.89968586,-1.366287708,8.150812786
34.81824484,-0.9140028954,8.977647781,-0.068449907,9.024314177
34.83657041,-0.898319304,9.713227272,1.004802346,9.806293355
34.8549215,-0.4344331622,10.02797031,1.109479904,10.09850813
34.87325984,-0.3948055506,10.25379848,-6.275823593,12.0283921
34.89158541,1.495635986,7.353582382,-9.852593422,12.38489798
34.90993655,5.181359291,3.360366821,4.759539604,7.796907497
34.92827489,7.819503784,-3.084938049,3.981579542,9.301314845
34.94660046,0.9437279701,-15.51879978,10.84209251,18.95454403
34.96495161,-18.52419472,-35.75510025,0.3701381981,40.27046047
34.98328994,-23.30689621,-19.70098114,-6.324216843,31.1662604
35.00161551,-3.825072765,-4.963544846,6.260663986,8.857983554
35.01996666,3.46309042,1.125948906,-1.675453544,4.008478611
35.03830499,8.354408264,3.716554642,3.799947262,9.901945013
35.05663056,3.943367243,-0.3773040771,1.6873703,4.305777759
35.07498171,-9.766020775,-11.78254223,0.3064821959,15.3067761
35.09332004,-14.19899559,-20.65223312,1.132426739,25.08801704
35.11164562,-7.717604637,-12.70194244,2.056989431,15.00439831
35.12999676,-5.146691799,-7.141420364,0.8802497387,8.846646873
35.1483351,-4.149580479,-7.73453331,0.324085474,8.783339631
35.16666067,-2.058305979,-11.25670147,0.7571799755,11.46835965
45.19780286,1.853303671,-4.587073326,1.23626411,5.099443611
45.21614135,1.81622231,-0.6698856354,1.555594325,2.483401689
45.23446708,0.4643720388,3.062138557,0.1666169167,3.10162782
45.25281838,-1.031895757,6.922271729,1.079768538,7.081564434
45.27115692,-1.711159706,11.50353718,2.86169982,11.97700969
45.28948265,-2.412179708,14.74531555,-1.938768148,15.0665777
45.3078339,-5.79567194,13.43550491,-7.452012062,16.42056909
45.32617244,-8.944430351,9.948669434,-7.435782433,15.30587202
45.34449817,-6.212994576,8.471989632,-2.339346886,10.76329196
45.36284942,-1.722691298,8.1959095,0.5621970296,8.393846755
45.38118796,1.054388762,8.88858223,0.228671059,8.95382154
45.39951369,3.87789011,9.228333473,3.162321091,10.49763998
45.41786499,4.999856472,10.18853283,5.109019756,12.44615799
45.43620348,3.367044449,10.07634735,3.767658949,11.27231202
45.45452921,0.2615062892,9.320742607,1.4823246,9.44149959
45.47288051,-1.261813641,8.610808372,-1.47757864,8.827311772
45.491219,-1.088443518,8.791061401,-5.767209053,10.57015469
45.50954478,0.9629409313,9.152305603,-5.392437935,10.66631801
45.52789603,2.70031929,9.706500053,0.5908252597,10.09242003
45.54623458,2.950627565,9.910086632,2.409265995,10.61699499
45.5645603,1.885211825,5.836651802,-1.191617489,6.248238162
45.58291161,2.185671091,0.06964206696,-3.865218401,4.440936998
45.6012501,-0.7488832474,-7.428292274,7.323066235,10.45789899
45.61957583,-8.251673698,-21.44129181,3.185704947,23.19413351
45.63792713,-16.3812027,-29.67539978,6.209823132,34.46063054
45.65626567,-13.33255386,-15.66210079,-8.221730232,22.15073908
45.6745914,-3.070221186,-15.31123352,0.1400952935,15.61664998
45.6929427,1.4508394,-11.0763092,6.87166214,13.11523165
45.71128119,0.7724590302,-13.51135921,-0.6777960062,13.5503848
45.72960692,-3.484492779,-18.68796158,2.782207489,19.21255518
45.74795822,-3.588135242,-16.74727631,1.453430414,17.18890451
45.76629676,-2.318477154,-12.06730461,1.220807195,12.34850384
45.78462249,-1.331594706,-8.774300575,2.475850105,9.213649048
45.80297379,0.9287410975,-4.723970413,2.788249969,5.563523558
45.82131228,2.88936615,-0.4320840836,2.349944592,3.749316336
45.83963806,2.522823334,3.829754353,2.833280563,5.390652532
45.85798932,0.08180746436,7.123677731,-0.8797394037,7.178260116
