Time (s),Linear Acceleration x (m/s^2),Linear Acceleration y (m/s^2),Linear Acceleration z (m/s^2),Absolute acceleration (m/s^2)
0.124908812,0.9509678483,-2.390284061,-0.7820783854,2.688762605
0.143250062,1.249764204,-1.664330482,-0.08718729019,2.083148613
0.161591312,1.127093077,-0.9110183716,-0.3636214733,1.494159915
0.179932562,0.622813046,-0.848074913,-0.5827884674,1.202817337
0.198273812,0.08432722092,-1.230457306,-0.4346580505,1.307694109
0.216615062,-0.2463073134,-0.8647680283,-0.619325757,1.091812909
0.234956312,-0.2357874513,0.4446907043,-1.176698804,1.279830309
0.253297562,0.09431749582,1.881692886,-0.8297421932,2.058673363
0.271638812,0.229130432,2.287583351,0.1963841915,2.307402239
0.289980062,0.1682674885,2.10896492,1.026527643,2.351553951
0.308321312,0.3984781802,2.494680405,1.042565107,2.732975884
0.32666251,1.36978662,3.240922928,1.477746487,3.81623263
0.34500376,1.777752757,2.73517704,1.536263466,3.605787534
0.36334501,2.015940666,1.793777466,2.283103704,3.534715956
0.38168626,2.19592905,1.937381744,2.199745655,3.66257196
0.400027458,2.398466349,3.371553421,2.392271519,4.779432635
0.418368708,2.36267519,3.123682022,3.321042776,5.135070452
0.436709958,1.417874455,1.404072762,3.580753326,4.099217325
0.455038448,0.7277681231,-0.1326303482,3.274356127,3.356880292
0.473392458,1.001369238,-0.1863546371,2.758024693,2.9400967
0.491733708,2.166582108,-0.6031999588,4.262171745,4.819132308
0.510062146,2.534249544,-1.647446156,4.30741787,5.262161941
0.528416208,2.136223078,-2.945306778,2.783610582,4.581131839
0.546757406,1.647686005,-4.131896019,0.6973111629,4.50262998
0.565085896,1.018422365,-4.149729252,-1.268701553,4.457245855
0.583439854,0.8964934945,-3.580766678,-2.313573122,4.356398877
0.601781104,0.7196164131,-3.132802963,-1.544224501,3.566080691
0.620109542,1.172159433,-2.530357838,0.8218185902,2.907241703
0.638463552,1.165089846,-2.053563118,1.25512886,2.673930494
0.656804854,0.7625980973,-1.53851223,0.3651678562,1.755540744
0.675146052,0.5161935687,-1.523776054,-0.5913140774,1.714059976
0.69348725,0.2494142652,-0.5910310745,-1.124210358,1.294362443
0.7118285,0.7837501764,0.2407674789,-1.594218969,1.792698368
0.73016975,1.156451941,0.9641418457,-0.9202634096,1.764606283
0.748511,1.350938201,1.132465363,-0.05755198002,1.763752831
0.766852198,1.39033103,1.654112816,-0.2887604237,2.180021138
0.785193396,1.142755985,2.346666336,-0.411907196,2.642423447
0.803534646,1.061603665,2.318898201,-0.5261203051,2.604053337
0.821875896,1.131090999,2.075080872,-0.4904603958,2.413685744
0.840204333,1.795117021,1.225786209,1.36633265,2.567462144
0.858558344,1.641470671,0.1563434601,2.895450592,3.332041922
0.876899542,-0.2818344235,0.1587371826,1.015836954,1.066092328
0.895227979,-2.25965476,1.528333664,-2.049594402,3.412137254
0.913582042,-2.86868453,2.453817368,-1.800645471,4.182450803
0.931923239,-0.8167353868,2.627644539,2.59940052,3.785294649
0.950251677,0.834192872,2.058228493,6.474006176,6.844336216
0.968605687,0.5529197454,0.4663133621,5.51235342,5.559605078
0.986946885,-0.3147446811,-0.7604703903,1.555680156,1.759977323
1.005275323,-0.9073562622,-2.054578781,-0.5135499239,2.303979791
1.023629333,-0.142300874,-2.052469254,0.4807934761,2.112827949
1.041970583,1.726900816,-1.613239288,3.687216997,4.379531552
1.060299021,2.38536334,-1.634946823,4.825175762,5.625418253
1.078652979,1.42664969,-2.743970871,2.386793137,3.906595315
1.096994229,0.4321930408,-5.163039207,1.644881487,5.435935962
1.115322667,-0.3071088791,-2.653858662,-0.3509981632,2.694528042
1.133676625,1.069046259,-2.509679794,0.9321312904,2.882745448
1.152017875,1.2859025,-1.333025932,1.627266407,2.465461283
1.170359073,0.5921195745,-1.174463272,-0.04037809372,1.315902716
1.188700271,0.1148420647,-1.315662384,0.2304673195,1.340623509
1.207041521,-0.0007938817143,-0.5851335526,0.3001105785,0.6576079865
1.225382667,-0.03392678499,0.1986064911,0.3110663891,0.3706182179
1.243723917,0.125927195,0.5301713943,1.003880739,1.142241614
1.262065114,-0.249222517,0.6486377716,0.6313004494,0.9388200462
1.280406312,-0.1952440739,0.9670534134,1.153040171,1.517502615
1.29874751,0.5444428325,1.449982643,2.060729742,2.577881831
1.31708876,0.9301469326,1.362452507,2.128081799,2.692616254
1.335429958,1.501983047,0.8928499222,2.740690708,3.250310695
1.353771208,1.471938133,0.9929037094,2.031542778,2.69807815
1.372112354,1.283146381,1.342300415,0.7003166676,1.984610409
1.390453604,1.457578659,1.781434059,1.740730286,2.885859453
1.40879475,1.312269092,1.245606422,3.054043055,3.549755556
1.427136,0.7571724057,0.3667240143,2.622418642,2.754065375
1.445477198,0.5729957223,0.004095077515,1.586465597,1.686776203
1.463818396,1.399064422,-0.4494924545,2.991811037,3.333220365
1.482159594,2.135726929,-1.230740547,4.520840645,5.149179735
1.500500792,2.042568922,-1.996604919,3.53104949,4.541676949
1.518841989,1.64036262,-2.337128639,0.9281134605,3.002391447
1.537183239,1.492274761,-2.370991707,-0.5852048397,2.861983637
1.555524437,1.570536375,-2.356694221,-0.6454312801,2.904681342
1.573865583,1.330311656,-1.980505943,-0.2749037743,2.401604667
1.592206781,1.37451911,-2.02505064,1.034607649,2.657168769
1.610547979,1.34611845,-1.660041809,0.7349762917,2.260080494
1.628889229,1.288305998,-1.153365135,-0.08613753319,1.731301
1.647230375,1.006853938,-0.8911266327,-0.6649768353,1.500018573
1.665571573,0.8067412376,-0.7049942017,-0.6376440525,1.246771104
1.683912823,1.068739772,-0.284163475,-0.4416925907,1.190817335
1.702253969,1.360630512,-0.1637992859,0.2023558617,1.385313499
1.720595167,1.157655716,-0.2719545364,0.1140713692,1.19462894
1.738936364,0.6989453435,-0.1273756027,-0.4025321007,0.816566733
1.757277562,0.7007899284,0.3462152481,0.1743628979,0.8008582534
1.77561876,0.7410842776,0.6563749313,1.117522717,1.492947078
1.793959958,0.9841659069,0.904384613,1.913718224,2.334268943
1.812301156,1.353662729,0.8138008118,3.05403614,3.438286098
1.830629542,1.673952818,1.051960945,3.756759167,4.245230183
1.8489835,1.576757431,1.009384155,3.815255165,4.249846155
1.867324698,0.04088795185,0.9358730316,1.409990072,1.692808955
1.885653135,-1.632045865,1.027413368,-1.444474101,2.409493176
1.904007042,-1.308332443,1.925392151,-0.6404008865,2.414328481
1.922348239,0.418854326,1.916033745,3.700539351,4.188151829
1.940676677,0.8050400019,0.7684707642,4.942543983,5.066298229
1.959030635,-0.2071250081,-0.2896604538,2.482110977,2.507524447
1.977371781,-1.014372349,-1.322384834,0.1973619461,1.678274307
1.995700219,-1.014638186,-2.002257347,-0.6496640444,2.336790214
2.014054177,-0.2336220741,-2.202988148,-0.4460544586,2.259801016
2.032395375,0.6467718482,-2.472908497,0.3101232052,2.574833327
2.050736521,1.223486185,-2.49250412,0.9427952766,2.932295716
2.069077667,1.114460945,-2.924154282,1.091177464,3.314116733
2.087418864,0.9004431963,-3.374047756,1.048896074,3.646255502
2.105760062,0.7484525442,-3.36055088,1.007773876,3.587351616
2.124101208,1.000144839,-2.80357933,1.196088791,3.207954981
2.142442406,0.9511698484,-2.011393547,1.02691555,2.450506811
2.160783552,0.6495010853,-1.308828354,0.4978578091,1.543614498
2.179124802,0.6227787733,-0.889626503,0.2593412399,1.11648851
2.197465948,0.758182168,-0.5993909836,0.4398646355,1.061880713
2.215807146,0.9560284615,-0.2413167953,0.8655064106,1.311992973
2.234148292,0.8690026999,0.4988155365,0.6219129562,1.179304183
2.252489437,0.1899280846,1.262958527,0.3240354061,1.317625084
2.270830635,-0.2591034174,1.609508514,0.3165686131,1.66068297
2.289171833,-0.05756822228,2.003561974,0.7419462204,2.137301775
2.307512979,1.132926702,2.586556435,2.858162165,4.017821308
2.325841364,2.042390823,2.681633949,5.467034817,6.422693407
2.344195323,1.225882292,2.086521149,3.897132397,4.587373847
2.362536469,0.1094968915,1.930215836,1.283298254,2.320469166
2.380877614,0.2645661831,1.724214554,1.620983839,2.381281105
2.399218812,1.163425326,1.010491371,3.785369396,4.087012695
2.417559958,1.510515571,-0.1678037643,3.833884478,4.124134525
2.435888344,1.230394006,-1.445609093,2.406449556,3.065070069
2.454242302,1.324964523,-2.341265678,1.584715128,3.122239261
2.4725835,1.880672097,-2.410181999,1.029567003,3.225819744
2.490924594,2.383871078,-2.096892834,0.5361845493,3.219828372
2.509265792,2.612639189,-1.392840385,0.4994149208,3.002549439
2.527606937,2.447389126,-0.9801282883,0.8537039757,2.771132525
2.545948135,2.371543884,-0.7848529816,1.488818169,2.908056763
2.564289281,1.922299266,-1.530267715,1.330121279,2.793953537
2.582630427,0.9421788454,-2.673862934,-0.1239509583,2.83771172
2.600958812,0.3140390515,-3.286919594,-1.538655758,3.64279048
2.619312719,0.5136786699,-2.911755085,-1.924371123,3.527802102
2.637653917,0.7574290037,-2.382295132,-1.42765069,2.878752383
2.655995062,0.823603034,-1.831451416,-1.531657457,2.525571384
2.674336208,0.8999399543,-1.181368828,-1.77562654,2.314816157
2.692677354,0.6868818998,-0.7026576996,-1.559622526,1.843354825
2.711018552,0.547177434,-0.5380086899,-0.6244485378,0.9893394114
2.729359646,0.5909748673,-0.2165880203,0.3660924435,0.7281382709
2.747700844,0.8401930332,0.3991575241,0.9261949062,1.312664491
2.766029229,0.8103569746,1.353442192,0.8092217445,1.772942195
2.784383135,0.6528737545,1.909412384,1.204119444,2.349894344
2.802724281,1.116856813,2.499952316,2.215743303,3.522307356
2.821052614,1.854722381,3.237421036,3.571296453,5.164789292
2.839406573,1.885519266,3.40126133,4.180542946,5.709702344
2.857747719,0.225751996,2.743940353,2.172591448,3.507182092
2.876076104,-1.443653703,1.916913033,0.09380269051,2.401560021
2.89443001,-1.225888848,1.235826492,1.203402996,2.116187458
2.912771156,0.4856017828,0.6843748093,4.557480812,4.634092071
2.931099542,1.243156672,-0.2871427536,5.356211662,5.506077809
2.949453448,0.3244238496,-1.20626545,2.395012617,2.701187258
2.967794594,-0.7839694619,-1.794437885,-0.2446467876,1.973440522
2.986122927,-0.6986250281,-1.710078239,-0.6380903721,1.954380679
3.004476885,0.1917439997,-1.345945358,0.08374619484,1.362111631
3.022818031,0.87349087,-1.504728794,0.9355456829,1.975459635
3.041159177,1.063454866,-1.904872894,1.154419661,2.468230489
3.059500323,0.9352355003,-2.905264854,1.074295759,3.235636057
3.077841469,0.6401047707,-3.938489437,0.5251290798,4.024573731
3.096182562,0.3431115448,-4.094431877,-0.1604206562,4.11191351
3.11452376,0.3380750418,-3.12078476,-0.695073843,3.215076966
3.132864854,0.5407740474,-2.319385529,-0.3299133778,2.404335384
3.151206,0.8741079569,-1.807277679,0.4900956154,2.066521484
3.169547146,1.068415165,-1.505786419,0.9118261337,2.059206304
3.187888292,0.615890801,-1.138511658,0.5495920181,1.406265146
3.206229385,0.1557638943,-0.5651903152,-0.311527729,0.6638915643
3.224570531,0.4984912872,0.9056396484,-0.4362475872,1.122046654
3.242911677,1.160995722,2.259400368,0.8062663078,2.665120344
3.26124001,1.507197738,2.642832756,2.691505671,4.062070011
3.279593969,1.293900132,2.131979942,3.073517084,3.958032755
3.297935114,0.6771851778,1.305137634,2.189837933,2.637679696
3.316276208,0.482193768,0.884059906,1.440038443,1.757208998
3.334617354,0.9359561205,1.406719208,2.245579958,2.810249479
3.352958448,1.901177645,1.526221275,4.401656151,5.031739728
3.371299594,1.996651769,0.7225322723,4.594484329,5.061418519
3.389640739,1.571023703,-0.1182031631,2.784168005,3.199012182
3.407981833,1.273147583,-0.5256757736,0.9482505322,1.67224964
3.426322979,1.528185487,-1.005062103,0.609500885,1.927950218
3.444664125,1.97393465,-0.9925737381,1.046319962,2.444668912
3.463005219,2.432389736,-0.7470541,1.127925396,2.78331194
3.481346364,2.634470701,-0.6373443604,0.9848678112,2.883853033
3.49968751,2.528463602,-1.287031174,1.306135893,3.123390529
3.518028604,2.127795935,-1.790603638,1.396944046,3.112110151
3.53636975,1.580797195,-2.371376038,0.9831809998,3.014795012
3.554710844,0.826266706,-3.147549152,-0.1028723717,3.255820183
3.573051989,0.1325288415,-3.678072453,-1.3807199,3.930924612
3.591380323,0.16022861,-3.229855537,-1.985610843,3.794771458
3.609734229,0.6290975809,-2.159844398,-1.953015924,2.979087577
3.628075375,0.8631251454,-1.240136623,-1.355472565,2.029834903
3.646403708,0.9626938105,-0.4329223633,-0.3975477219,1.127938534
3.664757614,0.8666678071,0.4774332047,-0.00114440918,0.9894730226
3.683098708,1.036735177,1.074132919,-0.1821196079,1.503911203
3.701439854,1.293700457,1.679271698,0.1331932545,2.123994998
3.719781,1.13017869,1.759269714,0.7552592754,2.223229716
3.738122094,0.7162666917,1.176867485,0.879137516,1.634300408
3.756463187,0.4660708308,0.6255750656,1.126978159,1.370637061
3.774804333,0.7551686168,0.9198064804,1.634584904,2.021927647
3.793145427,0.6804478168,1.7253685,2.576257229,3.174430185
3.81147376,-1.003138542,1.461820602,1.235798836,2.161112022
3.829827667,-2.359073162,1.363031387,0.02638268471,2.724660858
3.848168812,-1.248757005,1.438776016,2.285371542,2.975297223
3.866497146,1.308856249,2.093460083,6.123000145,6.602030792
3.884851,1.902899146,1.889261246,6.51839447,7.048389865
3.903192094,0.5606126785,0.3383178711,4.038887501,4.091620437
3.921520427,-0.7189632654,-0.7820959091,0.8075900078,1.334460119
3.939874333,-1.118320465,-1.601713181,-0.5927751064,2.041447551
3.958215427,-0.6511919498,-2.46211195,-0.0327091217,2.546981762
3.976556573,-0.02679312229,-2.727045059,0.7058918476,2.817050927
3.994897667,0.3921752572,-2.98374939,1.169525385,3.228676428
4.013238812,0.7347121239,-3.243944168,1.234765291,3.547903747
4.031579906,0.6654931307,-3.703858852,0.9887721539,3.89090245
4.049921,0.3582756519,-4.165186405,0.5916047096,4.222219246
4.068262094,0.4668551683,-3.770051479,-0.2156808376,3.804965194
4.086603187,0.5568573475,-3.185211182,-0.516122818,3.274453106
4.104944333,0.6468214989,-2.409515858,-0.3047907352,2.513372657
4.123285427,0.764224112,-1.370779037,-0.6226830482,1.688433547
4.14161376,0.6644845605,-0.4225912094,-0.78289783,1.110428779
4.159967614,0.6281254888,0.4300174713,0.3355894089,0.8319115978
4.17830876,0.6096596718,1.613577843,0.9662489891,1.977107857
4.196637042,0.4465520978,2.560026169,0.9947822094,2.782576936
4.214990948,-0.04534746706,2.499516487,1.05055356,2.711697226
4.233332042,-0.4073781371,2.340015411,0.7281796932,2.484325812
4.251673135,-0.06472781301,2.32933712,1.260526657,2.649326058
4.270014229,0.9458710551,2.733766556,3.170935869,4.292200592
4.288355375,1.185433149,2.914494514,3.293870449,4.55511938
4.306696469,0.4859814346,2.759690285,2.036361694,3.4639338
4.325037562,0.4136252105,2.278589249,1.618559599,2.825383152
4.343378656,0.8191233277,1.693226814,2.242755413,2.92710299
4.361706989,1.029953718,0.6406364441,2.1383605,2.45841521
4.380060844,0.7833487988,-0.771645546,1.292980194,1.697312573
4.398401937,0.668487072,-2.172051907,1.150897741,2.547400648
4.416743083,1.13363111,-2.426456451,1.662431002,3.152219415
4.435084125,2.011069059,-1.567411423,1.907635689,3.184376116
4.453425271,2.372061729,-1.002586365,1.317037344,2.892480533
4.471753604,1.945903063,-1.605369568,0.3127827644,2.541964444
4.490107458,1.439174414,-2.605076313,-0.7367534637,3.066015534
4.5084485,1.172703385,-3.179249287,-1.69705689,3.789836585
4.526789594,1.505555153,-3.50689888,-1.173801064,3.992849235
4.545130739,1.833803654,-2.941999435,-0.7727147341,3.551800188
4.563471781,1.570022464,-2.388524532,-0.951584816,3.012562637
4.581812875,1.284371495,-1.901097298,-0.7289844751,2.407322047
4.600153969,1.228905559,-1.167318344,-0.7738183737,1.863232638
4.618495062,1.403984785,-0.5527153015,-0.5328935385,1.600200926
4.636836156,1.502959847,-0.3768692017,-0.4884349108,1.624649919
4.655177302,1.583899379,0.1746768951,-0.03898024559,1.593978896
4.673518344,1.483158469,0.8279018402,-0.1045480967,1.701796347
4.691859437,1.312842846,1.18975544,0.4935369492,1.839199028
4.710200531,1.405393004,1.577280998,1.875230074,2.824788961
4.728541625,1.54525733,2.072978973,2.37375927,3.509956568
4.746869958,1.518107653,1.422119141,3.343886852,3.938102713
4.76522376,1.121431947,1.060535431,3.531148911,3.853745923
4.783564906,-0.2061321735,1.434786797,1.846792221,2.347710615
4.801893187,-1.548641801,1.899403572,-0.4504328966,2.491769482
4.820247094,-1.436104298,2.573652267,-0.5683288574,3.001512825
4.838588135,0.3914384544,3.010890961,2.973597765,4.249820244
4.856916417,1.319658041,2.621665955,5.058139324,5.848025577
4.875270271,0.2293961197,1.074442863,3.208157539,3.391065444
4.893611417,-1.186974645,-0.689125061,0.536101222,1.473501502
4.911939698,-1.568838239,-1.737267017,-0.7544162273,2.459368609
4.930293552,-0.9030950069,-1.816284657,-0.4519635439,2.078158221
4.948634646,-0.06085315347,-1.543751717,0.9955723286,1.837943615
4.966962927,0.6914958954,-1.345954895,2.72637701,3.118155345
4.985316833,1.036114812,-1.901453972,3.541917086,4.151413946
5.003657875,0.8774271011,-2.838598251,2.879333019,4.137399786
5.021986208,0.5307149291,-3.477144718,1.392256975,3.782931828
5.04034001,0.1290622056,-3.59473753,-0.3114347458,3.610510568
5.058681104,0.1892643869,-3.307711124,-0.551150322,3.3586516
5.077022198,0.7120994329,-2.847455025,0.03246426582,2.935326157
5.095363292,0.6032140255,-2.432082653,0.08359003067,2.507165827
5.113704333,0.3202778101,-1.617181778,0.04882645607,1.649314646
5.132032667,-0.02695436776,-0.6694736481,-0.5455877781,0.8640529654
5.150386469,-0.2779113054,0.01333618164,-1.182621479,1.214909919
5.168727562,-0.230757907,0.3359642029,-0.4951189756,0.6412986491
5.187068656,-0.01364314556,1.032184601,0.6023210287,1.195149282
5.205409698,0.3188866675,1.608922958,1.464714289,2.199024725
5.223750792,0.3950433731,1.938271523,1.509043932,2.488005094
5.242091833,1.02551651,2.216400146,2.044578552,3.185029855
5.260432979,1.713696122,2.887975693,3.262592077,4.682057781
5.278774021,1.3562994,2.550341606,2.363321543,3.732168148
5.297115114,0.6695696712,2.283363342,1.172915459,2.652885669
5.315456156,0.6255957484,2.494992256,0.6451897621,2.651909921
5.33379725,0.8280088902,2.258911133,1.810989618,3.011305635
5.352125531,0.66237849,0.8445291519,2.509866238,2.729725862
5.370479333,0.3907414675,-0.3144950867,1.919662476,1.984109391
5.388820427,0.7857629061,-0.8296422958,1.732093096,2.075060523
5.407161521,1.525324106,-1.137928963,1.610907316,2.493294675
5.425502562,2.239257336,-1.069138527,1.427148581,2.862530991
5.443843656,2.059127331,-1.101789474,1.143986464,2.60050965
5.462171937,1.359285593,-1.950232506,0.7158222198,2.482632796
5.480525792,0.8387200832,-2.67347908,0.153229475,2.806139883
5.498866833,0.910217762,-2.854868889,0.807765007,3.103426663
5.517207875,1.133728623,-2.403459549,1.202486753,2.916836092
5.535548969,0.7653227448,-2.012774467,-0.003144264221,2.153367095
5.55389001,0.2897863984,-1.907737255,-1.356621265,2.358783341
5.572231104,0.3155527711,-1.726221561,-1.429736376,2.263528338
5.590572198,0.7128649354,-1.166923523,-0.6004567146,1.493464158
5.608913239,1.007209539,-0.4957065582,-0.4045345783,1.19324946
5.627254281,1.055433512,0.06600952148,-1.14023757,1.555133072
5.645595375,0.935657084,0.2681455612,-1.693921924,1.953644723
5.663936417,0.9413741231,0.3335838318,-0.7533922195,1.251024879
5.682264698,1.42735672,0.6138563156,1.381299019,2.078979019
5.7006185,1.285230756,0.9890193939,1.662327528,2.32235016
5.718959594,0.870747447,1.239398956,0.7114224434,1.673449367
5.737300687,0.6764889956,1.28912735,0.4532184601,1.524760197
5.755641677,0.8529853225,1.244940758,2.273664951,2.728921721
5.773982771,1.322192192,1.092597008,4.933023453,5.222708186
5.792323812,0.8880058527,1.127666473,4.029868603,4.277853086
5.810664854,-0.5895705223,1.082187653,-0.1277706623,1.238970887
5.829005948,-1.45674479,1.786314011,-2.605325222,3.478612172
5.847334177,-0.408822298,2.354955673,0.9354600906,2.566717257
5.865688031,1.045587182,1.681856155,6.080220222,6.394604807
5.884029073,0.7498103976,0.1301898956,5.868315697,5.917456731
5.902357354,-0.7432916164,-1.001494408,2.060769558,2.40878489
5.920711208,-1.632303476,-1.339142799,-0.8848671913,2.289259274
5.93905225,-1.230950594,-0.8804893494,-0.4337387085,1.574366579
5.957393292,-0.1117458344,-0.5946311951,1.411598682,1.535800843
5.975734333,0.7514507771,-0.6501150131,1.92722106,2.168296293
5.994075375,0.8027213812,-1.559725761,0.9476482868,1.993776151
6.012403656,0.3814281523,-3.142447472,-0.02892208099,3.1656437
6.03075751,0.1017073393,-4.149140358,-0.4799501896,4.17804527
6.049098552,0.2410687804,-3.51269865,-0.8997633457,3.634107874
6.067439594,0.5531262159,-2.76329565,-0.775642395,2.92290482
6.085780635,0.5071396828,-2.409283161,-0.7658643723,2.578446091
6.104121729,0.4647087157,-2.486754894,-0.3647987843,2.555969923
6.122462719,0.3786015809,-2.208776474,0.08905935287,2.242758176
6.14080376,0.1859366894,-1.536446571,-0.01036548615,1.547691172
6.159144802,0.3481832743,-0.3557167053,-0.1225907803,0.5126348275
6.177473083,0.2251972854,0.6184616089,0.1127710342,0.6677768229
6.195826937,0.05408495665,1.483283997,0.4334850311,1.546274836
6.214167927,0.2413622439,1.990455627,1.452892303,2.476098823
6.23249626,0.9493216276,2.387112617,3.260047436,4.15059363
6.25085001,1.44783473,2.396367073,4.889244556,5.634138167
6.269191052,0.9114479423,2.485830307,3.655352831,4.5135013
6.287519333,-0.08675420284,2.729109764,0.3660011292,2.754908932
6.305873135,-0.3030008078,3.114794731,-0.7245453596,3.212276714
6.324214177,0.7723058462,2.751853943,2.218189001,3.617944014
6.342542458,1.499828458,1.408672333,4.703965187,5.134309265
6.36089626,1.328965902,-0.3366556168,4.473479271,4.67883577
6.379237302,1.076430798,-1.297003746,2.738926888,3.215997897
6.397565531,1.383677721,-1.869651794,2.265717983,3.247097142
6.415919385,1.795642138,-1.938983917,1.881298304,3.243959405
6.434260427,2.263727188,-1.748904228,1.020365477,3.037148743
6.452588656,2.341944695,-1.667344093,-0.2718803883,2.887673843
6.470942458,2.050718307,-1.778903961,-1.577005982,3.139568879
6.4892835,1.477962971,-1.827736855,-2.366145611,3.335212378
6.507624542,0.9100243449,-2.174973011,-1.257314801,2.671982862
6.525965583,0.686098516,-2.43741703,0.2327680588,2.54281614
6.544306625,0.762499094,-2.12196207,0.3488571644,2.281628633
6.562647614,0.6955139041,-2.166361809,0.006040811539,2.275280108
6.580988656,0.2624377012,-2.383302689,-0.381706953,2.42790145
6.599329698,0.006160318851,-2.161313057,-0.5946586132,2.241635775
6.617670687,0.3384540677,-1.039603233,-0.230322361,1.117306775
6.636011729,0.6833068132,-0.4377651215,0.1271300316,0.8214064448
6.654352771,0.4271464944,-0.4514331818,-0.6042203903,0.8667919735
6.67269376,0.2878363132,-0.3450708389,-0.6601424217,0.7985684968
6.691034802,0.3975861669,-0.2973966599,0.2113585472,0.5396220611
6.709375844,0.6812154651,0.4203090668,0.09274077415,0.805800889
6.727716833,0.8099349141,1.001960754,0.4123718739,1.352764015
6.746057875,0.7388044596,0.7000541687,1.670133352,1.955825474
6.764398917,1.085808516,0.6617546082,3.28867507,3.525944272
6.782739906,1.033223033,0.8560943604,3.569904327,3.813746753
6.801080948,0.1316447854,0.7501449585,1.426783323,1.617330659
6.819421989,-0.9143058062,0.7231721878,-1.150554657,1.63789778
6.837763031,-1.387314796,1.554471016,-1.006733894,2.313986953
6.856104021,-0.4852355719,2.334887505,2.031798124,3.132946989
6.87444501,0.02574038506,2.420414925,3.405143023,4.177806838
6.892786052,-0.5222247243,1.259770393,2.293765545,2.668539016
6.911127042,-1.092869282,0.07649803162,0.811671257,1.363460834
6.929468083,-0.6593558788,-0.07717323303,0.5222685337,0.8446717138
6.947809125,0.2673763037,-0.1008605957,1.539556265,1.565853263
6.966150114,0.8875999451,-0.3571233749,2.273693562,2.466790056
6.984491104,0.788254261,-1.386358738,1.852042198,2.444053116
7.002819385,0.3601401746,-2.989290237,1.165420294,3.228585066
7.021173187,-0.0329605937,-4.31183815,0.3882393837,4.32940694
7.039514177,-0.07257044315,-4.776143551,0.1444861889,4.77887957
7.057855219,0.1527019739,-4.145855904,0.148463726,4.151322746
7.076196208,0.5122416615,-3.369869232,0.3902697563,3.430848386
7.094537198,0.9123245478,-2.769892693,0.09565448761,2.917840193
7.112878239,0.7650209069,-2.611351013,-0.4338955879,2.755481171
7.131219229,0.160613209,-2.117749214,-0.4784417152,2.177054159
7.149560219,-0.1539975703,-0.6425695419,-0.6998744011,0.9625149584
7.167888448,0.1016659439,1.746520042,-0.8721724749,1.954828138
7.186242302,0.4025307298,3.10588932,0.4146847725,3.159199728
7.204583292,0.1550077051,3.194778442,1.20194149,3.416913817
7.222924281,-0.5636309385,3.125823975,0.632119894,3.238522953
7.241265323,-0.645091176,3.447534561,0.4757864475,3.53949289
7.259606312,0.4269550443,3.514800072,2.502750158,4.335881515
7.277934489,1.162636995,2.89822197,4.069118023,5.129243302
7.296288344,0.797019124,1.677968025,2.902416706,3.445988815
7.314629281,0.1270849705,0.9722566605,0.6574828625,1.180558054
7.332970323,-0.01794061065,1.454330444,0.0366089344,1.454901756
7.351311364,0.7106699944,1.936410904,1.839381695,2.763704769
7.369652302,1.048571944,1.227297783,2.961093664,3.372512218
7.387980583,0.7917591333,-0.2198181152,2.119238853,2.27296631
7.406334333,0.613660574,-1.577335358,1.144010305,2.042871927
7.424675375,0.7356948256,-2.280324936,0.9430823326,2.574982131
7.443016364,1.047851562,-2.051838398,0.7726950645,2.430039376
7.461357354,1.12084794,-1.776227951,0.292475462,2.120572502
7.479698344,1.191001773,-1.809509277,0.3945596218,2.20192787
7.498039333,1.346825242,-1.956431389,0.8759899139,2.531584551
7.516380375,1.183102131,-2.299884319,0.8871822357,2.734280683
7.534721312,0.6654301882,-2.507235527,-0.08657479286,2.595481173
7.553062354,0.244582966,-2.735172272,-0.7638913393,2.850354041
7.571403344,0.1129376367,-2.277949333,-0.9025756121,2.452845452
7.589744333,0.3807313442,-1.613130569,-0.6476634741,1.779498403
7.608085323,0.7055515647,-1.292153358,0.2522404194,1.493682878
7.626426312,0.7668036222,-1.525809288,0.8081986904,1.889250354
7.644767302,0.6033303738,-1.414977074,-0.4083924294,1.591525066
7.663095531,0.5512806177,-1.142951012,-1.744991064,2.157600785
7.681449333,0.3278698027,-0.07124996185,-2.625533819,2.646885528
7.699790323,0.6240686774,1.024128914,-1.707515478,2.086602706
7.7181185,0.8478934765,1.999733925,-0.1107393503,2.174884439
7.736472302,1.015650153,2.178513527,1.375695229,2.769477168
7.754813292,1.298513174,2.048166275,2.151509047,3.241930402
7.773154281,1.681267023,2.340726852,2.308959961,3.692825084
7.791495271,1.694398642,2.534181595,2.820510864,4.153112646
7.80983626,0.6220536828,2.419816017,2.281508207,3.383450907
7.828164489,-1.070654988,2.374653816,-0.6739470959,2.69062958
7.846518239,-1.562162399,2.444694519,-1.845199585,3.438261794
7.864859281,-0.1109401435,2.268800735,1.305119038,2.619751934
7.883187458,1.385939598,1.349110603,5.525952816,5.854663313
7.901541208,1.014882326,-0.1029787064,5.393832207,5.489445931
7.919882198,-0.8686811924,-1.441511154,0.8399636745,1.88098389
7.938210427,-1.963568687,-2.338750839,-1.788392901,3.538884944
7.956564177,-0.7736111879,-1.925537109,-0.08092737198,2.076708133
7.974905167,0.6225304008,-0.9420728683,1.286744356,1.711945217
7.993246156,1.120352507,-0.8496522903,0.8049731255,1.620210013
8.011587146,0.7456777692,-1.49191618,-0.5232617855,1.748042368
8.029928135,0.2201151848,-2.821015358,-1.229834676,3.085299284
8.048269177,0.3027591407,-3.11367178,-0.9410339594,3.266827201
8.066610114,0.5216295719,-2.899626255,0.1602737904,2.950528345
8.084951156,0.1065250337,-2.668110847,0.6920461655,2.758458079
8.103292094,-0.3131251335,-2.715040684,0.7655904293,2.838242761
8.121633083,-0.3802588582,-2.307662487,0.6446382999,2.42599701
8.139974073,-0.1556456387,-1.390086174,0.795208931,1.609012859
8.158302302,0.1375562251,-0.3552188873,0.6955966949,0.7930680519
8.176656052,0.125778079,0.2946081161,-0.08766698837,0.3321137879
8.194997042,0.1499714851,1.046207428,-1.0014956,1.456033951
8.213325219,0.2806885839,1.896586418,-0.6950502396,2.039343266
8.231678969,0.1638641357,2.525172234,-0.05059349537,2.530989128
8.25002001,0.2731309533,2.954601288,1.135824561,3.177163314
8.268348187,0.7391545773,2.878252029,2.370605707,3.801375495
8.286701937,1.306183338,2.248223305,2.809910059,3.828343961
8.305042927,1.678211212,1.333930016,2.924871683,3.626380637
8.323383917,1.504927278,0.7825183868,1.487801313,2.256256609
8.341724906,1.727780342,0.9604768753,1.027912378,2.228080922
8.360065844,1.95523572,1.968162537,1.348291039,3.084558188
8.378406833,1.706539989,2.028761864,1.481241107,3.036812251
8.396747823,0.9184666276,1.078172684,1.021193504,1.746102361
8.415088812,-0.1728198826,-0.4586296082,-0.2335320711,0.5429042803
8.433417042,-0.8659479022,-1.991801262,-0.7401529551,2.294551031
8.451770739,-0.7035722733,-2.477041245,0.5072953701,2.624518215
8.470111729,0.3404973745,-2.031615734,2.055989981,2.910411612
8.488439906,1.09668839,-1.637449265,2.854299545,3.468571956
8.506793656,1.10533607,-1.968244076,1.992109776,3.010689942
8.525134646,0.7864457369,-2.247869492,0.4262185097,2.419313201
8.543475635,0.625756681,-2.356194973,-0.4754670858,2.483806579
8.561816625,0.8061331511,-2.183610439,-0.1993422508,2.336181187
8.580157562,0.8418427706,-2.141283512,0.1398694515,2.305072188
8.598498552,0.7768725753,-2.203960419,-0.1153354645,2.339716819
8.616839542,0.6533510685,-2.392144203,-0.2786207199,2.495365908
8.635180531,0.403018117,-2.112755775,-0.6440213919,2.245200241
8.653521521,0.4559119642,-1.411355019,-1.270112395,1.952681286
8.671862458,0.7767899036,-0.7810897827,-0.9219068289,1.436459538
8.690203396,0.8658565283,-0.4777584076,-0.3583555222,1.051845665
8.708531625,1.105158567,0.300239563,-0.5185847282,1.257159248
8.726885375,1.10926795,1.039122581,-1.195134163,1.933545136
8.745226312,0.6229775548,1.593351364,-1.726676941,2.430695962
8.763567302,0.2332902551,1.906525612,-0.9495738745,2.142651347
8.781908292,0.7538698912,2.40495491,1.241693854,2.80961413
8.800249229,1.697667122,2.902882576,3.217501163,4.65415026
8.818577458,1.912482142,3.106629372,4.080554008,5.473541359
8.836931156,0.3932796419,2.41550827,2.416081667,3.439011443
8.855272198,-1.939253688,1.607301712,-0.5920960903,2.587412112
8.873613135,-2.620138407,2.087609291,-1.379227757,3.622914163
8.891954073,-0.4818240106,2.612160683,2.656002045,3.756312643
8.910295062,1.644391894,2.633213997,6.17078495,6.907707837
8.928623239,1.198520541,1.397399902,5.117718697,5.438770324
8.946976989,-0.5370524526,-0.2403640747,1.641274929,1.74355488
8.965317927,-1.440509081,-1.069677353,-0.7975167036,1.963494065
8.983646156,-1.107818246,-1.444519043,-1.107862711,2.131022364
9.001999906,-0.2233821452,-1.88936615,-0.1944850683,1.91244045
9.020340844,0.438387692,-2.172420025,0.004107832909,2.216215109
9.038681833,0.2525401115,-2.315618515,-0.6572448015,2.420296747
9.057022771,-0.5110911131,-2.681363583,-1.751766086,3.243394704
9.07536376,-0.8564568758,-3.062800884,-1.7648561,3.637167124
9.093704698,-0.1722166985,-2.955733299,-0.7258462906,3.048421028
9.112045687,0.9849355817,-3.132414818,1.704239249,3.69953404
9.130386625,1.006519079,-2.428907394,1.374993443,2.967031978
9.148714802,-0.2474680096,-1.885565758,-0.3320425749,1.930505352
9.167068552,-0.8892724514,-1.321844101,-1.665784955,2.304976537
9.185409489,-0.915856719,-1.750976086,-0.641195178,2.077460478
9.203737667,-0.4680776,-0.4345874786,1.278082132,1.428795595
9.222091469,-0.2566207647,0.8941707611,1.127952576,1.462078172
9.240432406,-0.1390368044,1.99244976,0.8491991758,2.170328667
9.258760583,0.009241223335,2.67816925,0.8559477329,2.811640528
9.277114333,0.7140245438,3.130876541,2.300329208,3.950156128
9.295455271,1.120896578,3.459651947,3.254784584,4.880494178
9.313796208,0.7768654823,3.578865051,1.380919695,3.913915461
9.332137198,0.8510916233,4.553695679,0.1611051559,4.635348548
9.350478135,1.545217633,4.652724266,1.192450166,5.04554041
9.368806364,1.74546349,3.265996933,2.832006931,4.661935437
9.387160062,1.58387661,1.630829811,2.604331017,3.456994508
9.405501,1.189199209,0.5065145493,0.8189301491,1.530162847
9.423829229,1.235008717,-0.496711731,0.9255666733,1.621308959
9.442182927,1.806095362,-1.401490211,2.196974039,3.170622998
9.460523864,1.983050227,-2.480312347,1.618358374,3.564199962
9.478852042,1.469258547,-3.88099575,0.1872103214,4.154021714
9.497205792,1.106170416,-4.51835537,-1.180723667,4.799297512
9.515546729,0.6670591235,-4.487223625,-1.460794568,4.765927455
9.533887667,0.6620147228,-4.155332565,-0.6661080122,4.260135221
9.552228656,0.6835791469,-3.833296299,0.3766971827,3.911948585
9.570569594,0.4340762198,-3.491465092,0.01496934891,3.518376718
9.588910583,0.03062907234,-3.321426392,-0.2340794802,3.329805493
9.607251469,0.2761446238,-2.465864658,-0.6728862524,2.570898729
9.625592458,1.095560908,-1.156716347,-0.2008160353,1.605793726
9.643920635,1.444711804,-0.1682128906,0.1945670843,1.467427724
9.662274333,1.644076228,0.8367471695,0.4471561909,1.898178371
9.680615271,1.108751535,0.6000947952,-0.09725141525,1.264476796
9.698956208,0.653875947,-0.3421726227,-0.3089756966,0.8000636467
9.717297198,0.7665256858,-0.04438781738,-0.7567657828,1.078066026
9.735638135,0.7356685996,0.7244758606,-0.6408776045,1.215235642
9.753966312,0.4367405176,1.854036331,-0.9594817162,2.132791167
9.77232001,0.6660677195,2.45646286,0.4817014933,2.590345984
9.790661,1.096329689,2.317704201,2.140289307,3.339839796
9.809001885,0.9858878851,1.957145691,2.968748093,3.6899674
9.827342823,-0.566755712,1.414712906,1.207160354,1.944186401
9.84568376,-1.821887255,1.798984528,-1.027725816,2.758956116
9.864024698,-1.540447593,2.47943306,-0.2911319733,2.933483409
9.882365687,-0.02197252959,2.405050278,2.815315008,3.702802753
9.900706573,0.2976137102,1.649290085,3.732550621,4.091535878
9.919047562,-0.7061935663,0.5841093063,2.32076025,2.495159549
9.9373885,-1.356587768,0.06252574921,0.6302921772,1.49716668
9.955729385,-0.978064239,-0.04782009125,0.7017278671,1.204706776
9.974070375,-0.2885737419,-0.4740152359,1.530394554,1.627904401
9.99241126,0.1589302421,-1.25813961,1.462776899,1.935946889
10.0107522,0.5031698942,-1.637026787,0.2476013899,1.730417028
25.05012824,0.1245219707,-1.781667709,-0.7137407064,1.923348992
25.06846876,0.09826982021,-2.291498184,0.2269153595,2.304801828
25.08680923,-0.4162096977,-3.360658646,0.8178989887,3.483707192
25.10513694,-1.099443555,-4.232911587,0.270955801,4.38175007
25.12349022,-1.361761808,-4.506361008,-0.7384949923,4.765192505
25.14183074,-0.9048444629,-3.335151672,-0.9209934473,3.576340184
25.16015845,-0.4777980447,-1.97381115,-0.2260322571,2.043358022
25.17851173,-0.8050262332,-1.349442482,-0.7833362818,1.755755672
25.1968522,-1.144907832,-1.248991966,-1.459740877,2.236434283
25.21517996,-1.146262884,-0.6205863953,-1.944074273,2.34061335
25.23353319,-0.8238165379,1.06665802,-1.811342597,2.257741133
25.25187371,0.21213907,3.046318054,-0.2524377108,3.064111857
25.27020142,1.311373711,4.109160423,1.304861784,4.506391535
25.2885547,1.48986125,4.102463722,1.815803528,4.727265339
25.30689517,1.504641652,4.364701271,2.159137249,5.096708482
25.32522288,2.2233181,4.882996559,3.020602226,6.157177647
25.34357616,2.135010004,4.095728874,3.223976851,5.63269824
25.36191668,0.2268716693,1.937841415,0.9850490093,2.185639873
25.38024438,-1.228315592,1.55251503,-1.374538898,2.410066243
25.39859767,-0.4470494688,2.89018631,-0.2319658995,2.93374135
25.41693814,0.9155702591,2.980774879,2.566622734,4.038668102
25.43526584,0.5549495816,1.445528984,2.314371586,2.784571586
25.45361913,-0.5104025006,-1.016192436,0.8189616203,1.401376436
25.47195959,-0.6759675741,-2.618924141,0.273348093,2.718531772
25.49028735,-0.005201637745,-2.955265045,0.5740240812,3.010501983
25.50864058,0.5938307047,-3.174967289,0.7345377207,3.312491186
25.5269811,0.8778066635,-3.493724823,0.7780811787,3.685385733
25.54532157,1.115024328,-3.685473919,0.8073046207,3.934175646
25.56366204,1.10299778,-4.003656387,0.2624813318,4.161101419
25.58200251,1.007467389,-4.377749443,-0.4726783037,4.516979688
25.60034303,0.6965634227,-4.592972755,-0.9697045088,4.745621789
25.61868355,0.3928024471,-4.298628807,-1.522530437,4.577182792
25.63702402,0.2609428167,-3.531101227,-1.803625107,3.973641976
25.65535168,-0.1667391062,-2.556775093,-2.042775869,3.276863448
25.67370496,-0.5124203563,-1.097723007,-2.188490152,2.501411515
25.69204543,-0.3741066158,-0.02519512177,-2.4780159,2.506222926
25.71037314,0.2647813559,1.522464752,-2.105635405,2.611840069
25.72872642,1.065637946,2.672775269,-0.7052557468,2.962549162
25.74706689,1.487834692,2.951341629,-0.1130681038,3.307091453
25.76540735,1.381601214,2.969996452,-0.473028183,3.309600656
25.78374788,0.9428062439,2.680713654,-0.6759257317,2.920956162
25.80208834,0.7728719711,2.570084572,-0.09162354469,2.685341815
25.82041605,1.03631556,2.652262688,0.9360909462,2.997451178
25.83876928,1.714008212,2.998723984,1.702741385,3.850908712
25.85710975,1.79501605,3.174775124,1.645170093,4.000982922
25.87543746,0.330816865,2.198056221,0.003079652786,2.22281363
25.89379074,-1.791639924,1.022851944,-1.813431978,2.746768148
25.91213121,-2.472041368,0.3790111542,-1.088892102,2.72769573
25.93045892,-1.114338756,0.7553510666,1.781235337,2.232734965
25.9488122,-0.2100147605,1.311738014,3.141787529,3.411098312
25.96715261,-0.7844424248,0.7722902298,2.344563961,2.590127851
25.98549308,-1.550453424,-0.3464641571,0.8428105116,1.798408405
26.00383355,-1.405740261,-0.9878396988,0.126937747,1.72280183
26.02217402,-0.7292990685,-1.197707176,0.317771554,1.437831135
26.04051454,-0.3280553818,-1.389914513,0.2931057215,1.457872988
26.05885501,-0.08161151409,-1.9186306,0.4802663326,1.979509931
26.07719548,-0.1100081801,-2.223275661,0.3008937836,2.246239866
26.09553595,-0.2173587978,-2.742958069,0.2303950787,2.761185562
26.11387642,-0.2473946512,-3.471198082,0.4230616093,3.505624247
26.13221689,-0.2416718304,-3.696412086,-0.08978104591,3.705391777
26.15055735,-0.2037778199,-3.61194849,-0.9639091492,3.743904131
26.16889782,-0.2592306137,-3.433616638,-1.735287428,3.855923519
26.18723829,-0.521237731,-2.691657066,-2.221491337,3.528700936
26.20556595,-0.5839905739,-1.528439522,-1.863631725,2.479978945
26.22391918,-0.7185210586,-0.5037050247,-1.718925595,1.92994727
26.24225965,-0.6491866708,0.8552885056,-1.885119438,2.169478522
26.26058735,-0.277895689,2.800476074,-1.141157269,3.036796366
26.27894058,-0.2144535482,4.152428627,0.08724856377,4.15887799
26.29728105,0.1241898239,4.331084251,1.513258934,4.589517023
26.31560871,0.8060588837,4.81114006,2.167060375,5.337878818
26.33396199,1.340464234,5.104028702,2.069698572,5.668474709
26.35230246,0.7342793345,3.614196777,1.522038221,3.989759997
26.37063017,-1.172027349,1.490649223,-0.4086613655,1.939764761
26.38898334,-1.39598608,1.656254768,-0.2805212736,2.184181581
26.40732381,0.4343651533,2.605671883,2.659865856,3.748744512
26.42566428,1.224753857,2.575414658,3.388234138,4.428646886
26.4440047,0.613445878,1.425265312,2.16062355,2.660073529
26.46234517,0.4605060816,-0.1488361359,2.460086346,2.507238097
26.48067288,1.091683865,-1.501955986,2.963455677,3.497100941
26.4990261,1.523660898,-2.231575012,2.069922686,3.403828652
26.51736652,1.523568869,-2.505606651,0.1237368584,2.935070289
26.53569423,0.9815662503,-2.911594868,-1.028078318,3.240031173
26.55404746,0.6577763557,-3.22859478,-1.371799469,3.569079401
26.57238788,0.274169147,-3.188014507,-1.432803512,3.505927997
26.5907284,0.2063519955,-2.884502411,-0.8776811361,3.022128303
26.60906881,-0.0169994235,-3.099407196,-0.6673549414,3.170485225
26.62740928,-0.4884548783,-3.784576416,-0.7922040224,3.897331655
26.6457497,-0.8469315767,-3.911669731,-1.618353724,4.317119637
26.66409017,-1.070944548,-3.356639385,-2.486644745,4.312464756
26.68243058,-1.047706842,-2.320430279,-2.670893192,3.689953489
26.70075829,-0.816339016,-1.331464767,-2.168051481,2.672013294
26.71911152,-0.2008571625,0.02837944031,-1.308717132,1.324344941
26.73745194,0.5075433254,1.269900322,-0.7703919411,1.569633969
26.75577959,0.9648089409,2.249188423,-0.4657315016,2.491307024
26.77413282,1.388735056,2.649882317,0.08191728592,2.992853453
26.79247329,1.160308838,2.925182343,-0.07197487354,3.147727548
26.81081371,1.000503421,3.00163269,-0.2736284733,3.175795718
26.82915418,1.25131011,2.923912048,-0.3498549461,3.199599528
26.84749459,1.716872692,3.138601303,0.279365778,3.588386158
26.86583506,1.663067579,3.264790535,1.214572549,3.860030762
26.88417553,-0.06850007921,2.18334198,0.626021862,2.272350729
26.90251595,-2.157461643,1.199032784,-1.032535076,2.675527806
26.92085636,-2.118995428,1.460416794,-0.8713166714,2.717011516
26.93919683,-0.4234778881,2.510949135,1.990601778,3.232134669
26.95753725,0.2561458945,2.646483421,3.574165344,4.454676546
26.97586496,-0.9319394827,1.227687836,1.786518574,2.359529028
26.99421814,-2.012694597,-0.4336204529,0.01982355118,2.058970425
27.0125586,-1.999351621,-1.279532433,-0.2751249075,2.38962421
27.03089902,-1.315117359,-1.155338287,0.266515255,1.770697774
27.04923944,-0.8648355007,-1.245430946,0.7975325584,1.713212441
27.06757985,-0.8053693771,-1.934575558,0.4956300259,2.153334982
27.08592032,-0.6402967572,-2.509852886,0.03446030617,2.590468869
27.10426074,-0.4031670988,-2.966695786,0.2741873264,3.006494019
27.12260116,-0.2501958609,-3.149798393,0.4506194592,3.191690114
27.14094162,-0.06408941746,-2.963408947,0.1815969944,2.969659494
27.15928204,-0.1387637854,-3.038853645,-0.3131554127,3.058096332
27.17762246,-0.5413188934,-3.221113682,-0.9574753046,3.403727142
27.19596293,-0.6234813929,-2.858201504,-0.9916783571,3.088927135
27.21430334,-0.05011367798,-1.865522385,-0.1907019615,1.875913747
27.23264376,0.5069970489,-0.2994823456,-0.1599844694,0.61018908
27.25097142,0.4852949381,1.047438622,-0.7638435364,1.384231119
27.26932465,0.1567272544,1.98396492,-0.8643316031,2.169734859
27.28766506,-0.5441769361,2.225998878,-0.9507468939,2.480951269
27.30600548,-1.152544618,1.718482018,-0.259401679,2.085384562
27.3243459,-0.8775708079,1.945233345,0.3323764801,2.159754017
27.34268631,0.05374866724,3.147821426,1.119363904,3.341353648
27.36102678,0.6638165712,3.57291317,2.004738808,4.150341992
27.3793672,-0.4341531396,2.872026443,0.3308284283,2.923435015
27.39770761,-0.5088369846,2.959809303,-0.445543766,3.03609872
27.41603527,0.7497161031,3.861881256,1.070320129,4.076982493
27.43438845,1.324465752,3.43274498,2.696794271,4.561868802
27.45272886,0.9210907817,1.795859337,2.710643768,3.379513075
27.47105652,0.4673437178,-0.2123632431,1.841192245,1.911412353
27.4894097,0.5056533813,-1.16699028,1.356246471,1.859289151
27.50775017,0.8554792404,-1.199510574,1.640743017,2.205154869
27.52609058,1.028060675,-1.182627678,1.435720682,2.125279006
27.544431,0.721762836,-1.695557594,0.2842137814,1.864573576
27.56277142,0.2304347157,-2.780116081,-1.11288321,3.003440464
27.58109907,-0.007314682007,-3.468893528,-2.202705622,4.109159022
27.59945225,-0.08576697111,-3.636464119,-2.399086475,4.357389491
27.61779267,-0.1247592568,-3.420674801,-1.862468719,3.896841118
27.63613308,-0.003247469664,-3.087346077,-1.153990269,3.295968732
27.6544735,-0.02239462733,-2.654057503,-1.166682005,2.899253291
27.67281392,-0.0269407928,-1.831872463,-1.66605258,2.476330698
27.69114152,0.03225678205,-0.9208993912,-2.346391439,2.52084291
27.70949475,0.08964878321,-0.2312469482,-2.592200041,2.604037847
27.72783517,-0.1212219894,0.169547081,-2.505722761,2.514376173
27.74617558,-0.4082388878,0.5480413437,-2.471363068,2.564106807
27.76451595,-0.1779748797,1.233082771,-1.603787184,2.030837637
27.78285636,0.215030998,1.835603714,-0.4776495695,1.908881462
27.80119683,0.06277409196,2.049339294,-0.2054347992,2.060566812
27.8195372,-0.04571640491,2.083202362,-0.0218000412,2.083817965
27.83787767,0.6001952887,2.240320206,1.408761263,2.713646496
27.85621803,0.3144275248,1.749502182,2.226168633,2.848762772
27.87455845,-1.567204118,0.895275116,-0.4840801954,1.868684006
27.89289886,-1.991912007,1.675028801,-1.999172091,3.281786705
27.91122647,0.0511199832,3.269378662,1.914958954,3.789263502
27.92957965,1.417519212,3.82215786,5.43940115,6.79745072
27.94792006,0.374217391,2.684453011,4.086540222,4.903686125
27.96624767,-1.225680828,0.6277132034,1.1667068,1.804860692
27.9846009,-1.839920044,-0.7591438293,0.4144260883,2.033065199
28.00294126,-0.8396111727,-0.8315029144,1.783699751,2.139609502
28.02128168,0.05537182093,-0.7822475433,2.383588314,2.50927689
28.03962209,0.04185175896,-1.264816284,0.9850571156,1.603698639
28.05796246,-0.3892948031,-2.349467754,-0.646443367,2.467678707
28.07629011,-0.4352588058,-3.213589191,-1.375352979,3.52252772
28.09464329,-0.2946226597,-3.534667015,-1.163854957,3.732992336
28.11298371,-0.1501452327,-3.190582275,-0.7321062088,3.276940394
28.13132407,-0.4598897099,-2.523375988,-0.8783349991,2.711161613
28.14966449,-0.7767759562,-1.784723759,-1.222972035,2.298756268
28.16800491,-0.6709471941,-0.5882492065,-1.430109859,1.685651647
28.18633251,-0.5247214437,0.07228469849,-1.348248959,1.448562365
28.20468569,-0.5427370667,0.7104177475,-1.680687189,1.903671801
28.22302605,-0.4571138024,1.849567413,-1.293152332,2.302627977
28.24135371,-0.422044456,2.733771324,0.00697183609,2.766166261
28.25970683,-0.5591338873,3.027868271,0.6010055542,3.137168253
28.27804725,-0.2939347625,2.759124756,0.5485064983,2.828431799
28.29637485,0.4846262932,2.551425934,1.634502411,3.068588449
28.31472803,1.368219376,2.593277931,3.060451984,4.238334701
28.33306845,0.8931419253,2.152199745,1.944979787,3.035228593
28.35139605,-0.7263958454,1.180391312,-1.057202101,1.743172641
28.36974923,-1.067238092,2.067886353,-2.21568203,3.213160122
28.38808959,0.2806350589,3.563802719,1.053710938,3.726895839
28.4064172,0.8467991352,3.014827728,3.638730526,4.800688997
28.42477038,0.9871330261,1.720880508,3.955865383,4.425464073
28.44311074,1.375590801,0.2775058746,3.31421566,3.599067241
28.4614384,1.54332757,-0.8550252914,1.904492497,2.596154832
28.47979152,1.678803444,-1.873114586,1.193188667,2.783996848
28.49813194,1.599760294,-2.36020565,0.5699522495,2.907687961
28.5164723,1.546719551,-2.481918335,0.2062853575,2.931691259
28.53481267,1.536790013,-2.292158127,0.01034903526,2.759677432
28.55315308,1.363734484,-1.941420555,-0.2512648106,2.385795364
28.57149345,0.7070310712,-2.531821251,-0.9903178215,2.80904631
28.58983381,0.2925408483,-3.532519817,-1.41427803,3.816341017
28.60817423,0.3615561128,-3.808758736,-1.311113834,4.044302834
28.62651459,0.3163211942,-3.838270664,-0.9380756617,3.963882785
28.64485501,0.06971551478,-2.944919586,-1.731332541,3.41685879
28.66319538,0.1491259038,-1.982426643,-1.794990897,2.678478346
28.68153574,0.5032861829,-1.375770569,-1.104696989,1.834774394
28.6998761,0.7954311967,-0.6708259583,-0.2551476955,1.071362964
28.71821647,1.074594975,0.3818769455,-0.2163438797,1.16077088
28.73655689,0.736189723,0.8076686859,-1.049608946,1.515250129
28.75489725,0.04651723802,0.7748088837,-1.5518713,1.735164889
28.77323761,-0.08843726665,1.129105568,-0.9646475315,1.487698018
28.79157798,-0.01356129721,1.561337471,0.1888263226,1.572772707
28.8099184,-0.1004199907,1.402609825,1.306967258,1.919781735
28.82825871,-0.04001660645,1.576686859,2.034081459,2.573913395
28.84658631,-0.8303486109,1.392997742,-0.002723932266,1.621705566
28.86493949,-1.472717404,1.758159637,-0.7938976884,2.426993079
28.88327985,-0.6918470263,2.763856888,1.775590181,3.357123426
28.90160746,0.6138335466,3.001629829,5.692421436,6.464536725
28.91996058,0.8036538363,1.928930283,6.290654659,6.628647491
28.93830095,-0.553515017,0.5452442169,2.119919062,2.257814642
28.95662855,-1.294991493,-0.2840662003,-0.9199935198,1.613717649
28.97498168,-1.157231331,-0.8102464676,-1.143892765,1.817738801
28.99332204,-0.1469379067,-0.8380861282,-0.04422926903,0.8520183889
29.01166241,0.4445621967,-0.7167444229,0.256393671,0.8815303903
29.03000277,0.4724878073,-1.09446907,-0.3155062199,1.23314697
29.04834314,0.07168763876,-2.201206684,-0.9098773003,2.382923978
29.06667074,-0.1716147959,-3.173285007,-1.120891571,3.36980523
29.08502386,-0.2794812322,-3.499989033,-1.131008387,3.688795597
29.10336423,-0.3208608627,-3.041677952,-1.012983441,3.221939153
29.12170459,-0.266556561,-2.581530571,-0.7727622986,2.707861529
29.14004496,-0.07480505109,-2.006917,-0.5614659786,2.085319085
29.15838532,-0.1046596169,-1.719429493,-0.8423495293,1.917535957
29.17672569,-0.4408421218,-1.089568138,-1.588510275,1.976073227
29.19506605,-0.5362605453,0.1296005249,-1.657435417,1.746843963
29.21340642,-0.1360552013,1.371102333,-1.106188774,1.766942622
29.23174673,-0.0232732296,1.886927605,-0.4074407816,1.930555728
29.25008709,-0.4501345456,1.688766479,-0.5765587091,1.840373135
29.26842746,-0.6473164558,1.69592762,-0.4105195999,1.861105969
29.28675506,-0.1439879835,1.851855278,1.127109766,2.172665859
29.30510819,0.674634397,2.258823395,2.714964628,3.595615056
29.32344855,1.294038534,1.495793343,3.677608013,4.175731571
29.3417761,0.7931790352,0.3390321732,1.674649715,1.883753558
29.36012923,0.2435730547,0.3221569061,-0.3826544285,0.5563607793
29.37846959,0.1634670347,1.539448738,-0.7227839231,1.70851997
29.39679715,0.5993916392,2.602575302,0.445785284,2.707654531
29.41515027,0.6834080219,2.822278023,1.04938066,3.087636561
29.43349064,0.5623075962,1.365156174,1.081158638,1.829957708
29.45181819,0.9442241788,-0.004830360413,1.731018662,1.971803297
29.47017131,1.245266914,-0.9548797607,2.71916151,3.139478359
29.48851168,0.9905592203,-1.846465588,2.38708806,3.176292201
29.50683923,0.5606774092,-2.491668701,0.6622247696,2.638430162
29.52519235,0.3474396169,-2.723324776,-0.8412052393,2.871382659
29.54353272,0.4830162525,-2.756944656,-1.249614954,3.065222027
29.56187308,0.6746513844,-2.236725807,-1.542489886,2.799530653
29.5802134,0.944254756,-1.820271492,-1.35693419,2.458917596
29.59855376,0.8975304365,-1.664189339,-1.59732461,2.475183417
29.61689412,0.7767913938,-1.68402338,-1.94065237,2.684300884
29.63523444,0.8093792796,-1.276003838,-2.174588442,2.648039936
29.6535748,0.8617711067,-0.9424247742,-1.984997988,2.360303139
29.67191511,0.8497005701,-0.7253437042,-1.98807323,2.28047138
29.69025548,0.9468393326,-0.2701263428,-2.034603357,2.260328247
29.70859584,1.07546854,0.4340982437,-1.598151803,1.974629852
29.72693616,0.9373364449,0.6838474274,-0.9312673807,1.487785552
29.74527652,0.5330225229,1.149742126,-1.056891799,1.650163702
29.76361683,0.215983212,1.770624161,-0.9791016579,2.034796973
29.7819572,0.2080765218,2.360724449,-0.05099999905,2.370425439
29.80029756,0.5888907313,2.991999626,1.377283573,3.346007187
29.81863788,1.120275259,2.976583481,3.420762062,4.670832791
29.83697819,0.2375769615,1.626961708,2.266965866,2.800460935
29.85531855,-1.519282103,0.8197631836,-1.838257313,2.521788994
29.87365886,-2.546300173,1.721940041,-4.044124126,5.079730507
29.89198642,-1.414728999,2.50863266,0.9229007959,3.02430849
29.91033954,0.635781765,3.217101097,6.791615963,7.541883406
29.92867991,0.7141458988,2.291432381,6.893316746,7.299211086
29.94700746,-1.316883922,0.2581672668,2.099522591,2.491752136
29.96536058,-2.320380449,-1.305571556,-1.793594599,3.21024362
29.9837009,-1.554824114,-0.8005895615,-2.199831247,2.81028098
30.00202845,0.1960701942,-0.2997255325,0.9855148792,1.048579274
30.02038157,0.7661829591,-0.6475057602,2.114107132,2.340031838
30.03872188,0.4273791313,-1.59181118,1.22375524,2.052825527
35.06395277,-0.04609832168,-3.290930748,0.699324131,3.364729481
35.08229298,-0.5314016342,-3.745943546,-0.342995882,3.798963928
35.10063314,-0.70857054,-3.880727291,-0.8735496998,4.040446212
35.11897329,-0.7149397135,-3.515185356,-1.26728344,3.804428235
35.1373135,-0.5653247833,-2.733790398,-1.116093755,3.006470908
35.15565371,-0.4435002208,-1.920125961,-0.8106113672,2.130884075
35.17398105,-0.5438202024,-0.9253578186,-1.442183495,1.797754359
35.19233402,-0.3508694768,0.3927268982,-1.791833401,1.867621681
35.21067418,-0.1559356153,1.97278595,-1.468695045,2.464399613
35.22900162,0.0648932308,2.806241035,-0.09783053398,2.80869555
35.24735454,-0.02331706882,3.582282066,0.7607505322,3.662243829
35.2656947,0.08127999306,4.610454559,1.624910593,4.889093179
35.28402209,0.7792634964,5.234225273,2.739788055,5.95909426
35.30237506,1.776813507,4.689351082,4.066026688,6.455978069
35.32071522,1.634835243,2.922504425,4.306256771,5.455049566
35.33904261,-0.1368324459,1.133392334,1.451097846,1.846344025
35.35739553,-0.9711869955,0.7029457092,-0.2272084951,1.220229712
35.37573574,-0.2105255574,0.957239151,0.7506736517,1.234560138
35.3940759,0.3613216281,0.8513793945,2.0768466,2.273475751
35.41241605,0.4084055126,-0.02760505676,1.824806809,1.87015427
35.43075621,0.2799835205,-1.053953171,0.7003065348,1.296008218
35.44909636,0.6681780815,-1.425190926,0.2682788372,1.596748151
35.46743652,1.500255942,-1.358570099,0.6071472168,2.113080299
35.48577673,2.151979446,-1.176795959,0.7136600018,2.554442183
35.50411688,2.191839457,-1.125997543,0.002099990845,2.464149971
35.52245704,1.745426655,-1.675831795,-0.7595697641,2.536113688
35.5407972,1.135443211,-2.745574474,-1.487444639,3.322634803
35.55912459,0.6950267553,-3.660076141,-2.021280527,4.238489651
35.57747756,0.3714522123,-4.283108711,-2.242589474,4.848938495
35.59581767,0.08260279894,-4.249711514,-2.270576954,4.818961597
35.61415788,-0.0255202651,-3.588732243,-1.765055418,3.99938383
35.63249803,-0.1560920179,-2.958396912,-1.510194182,3.325231341
35.65083814,-0.2435127795,-1.918591499,-1.743258476,2.603697742
35.66916558,-0.2253075838,-0.9122200012,-1.627730608,1.879472205
35.6875185,-0.1462706178,0.0974407196,-1.391930342,1.402982489
35.70585866,0.07503463328,1.183040619,-1.182124853,1.674107067
35.724186,0.4993070364,2.228060722,-0.272077322,2.299475629
35.74253897,0.8041052818,3.024188042,0.8197010756,3.234842882
35.76087907,0.6976584196,3.580687523,0.6636562347,3.70789563
35.77921923,0.5308910608,3.494021416,-0.03904151917,3.534339431
35.79755938,0.8982232809,3.245517731,0.1309543848,3.3700652
35.81589954,1.304112315,3.317530632,1.248648882,3.777015019
35.83422694,0.4481024742,2.787448883,1.507142305,3.200335144
35.85257985,-1.631439209,1.638622284,-0.5242581367,2.370975216
35.87092001,-2.890383244,1.370459557,-2.455778599,4.032781077
35.88924741,-2.03075099,1.45832634,-0.3375962973,2.522823132
35.90760032,-0.3072727621,1.904125214,3.728701353,4.198014192
35.92594048,-0.07780590653,1.436028481,4.266448021,4.502311659
35.94426782,-1.298548222,0.1389465332,1.183760405,1.76261803
35.96262079,-1.903415442,-1.128977776,-1.185265541,2.510465209
35.9809609,-1.425007343,-1.824951172,-1.091203809,2.559652019
35.99930105,-0.3905636966,-1.405237198,0.07926058769,1.460655272
36.01764121,0.2643272281,-1.343658447,0.7964708805,1.584188363
36.03598136,0.292644918,-1.878455162,0.7299888134,2.036447522
36.05432147,-0.1318943948,-2.747502327,0.03213143349,2.750853976
36.07266168,-0.4297633171,-3.693902016,-0.6248238087,3.770943304
36.09100178,-0.5510247946,-4.012428284,-1.014771104,4.175280763
36.10934194,-0.4149321914,-3.447681427,-1.504376292,3.784418578
36.12768204,-0.5228260756,-2.701686859,-1.565536261,3.165969484
36.1460222,-1.174463987,-1.757198811,-1.900367498,2.842271969
36.16434954,-1.909519553,-0.5256690979,-2.73952508,3.380471947
36.18270251,-1.628117323,0.7766599655,-2.247843027,2.882145901
36.20104261,-0.558036685,2.250009537,-0.3158934116,2.339601783
36.21937001,0.550313592,3.131795883,1.95070529,3.730447913
36.23772293,0.5723127127,3.290125847,2.613999844,4.240927388
36.25606303,0.02856990695,3.083212852,1.500368357,3.429011948
36.27440319,0.1696072221,2.899454117,1.4743433,3.257190346
36.29274334,1.089284778,2.817203522,2.350079536,3.827015918
36.31108345,0.9527807236,2.212475777,2.038444042,3.155644828
36.32941079,-0.1576469243,1.043715477,-0.2741043568,1.090563042
36.34776371,-1.04859972,0.4372911453,-2.145182848,2.427466657
36.36610386,-1.532655954,0.628613472,-1.723563075,2.390577095
36.38443121,-0.6657665372,1.109572411,0.6651089191,1.454910956
36.40278413,0.5289683342,1.663408279,2.579147577,3.114279504
36.42112428,1.131140828,0.6188316345,3.646740913,3.867964769
36.43945163,0.8523715734,-0.9866104126,3.525177956,3.75856582
36.45780454,0.6296041012,-1.866142273,2.382694006,3.091297306
36.47614465,0.6736667156,-2.216269493,1.398733139,2.705943773
36.4944848,0.9640636444,-2.167023659,0.9259412289,2.546129888
36.51282491,0.989380002,-2.118712902,0.4368526936,2.378793271
36.53116506,0.7673577666,-2.265277386,-0.1619381905,2.397194934
36.54950517,0.3442046344,-2.263261795,-0.9152342081,2.465458261
36.56784532,-0.1602582932,-2.524527073,-1.818123817,3.115203666
36.58618543,-0.3767901063,-2.722546101,-2.087520599,3.451372235
36.60452558,-0.4628298879,-2.789892197,-1.622234941,3.260269341
36.62286569,-0.6253658533,-2.61643219,-1.604699373,3.132388854
36.64120584,-0.4868896306,-1.705301285,-1.883249998,2.586840648
36.65953319,-0.31118083,-0.521156311,-2.308707952,2.38716774
36.6778861,-0.2682866156,0.004787445068,-2.141496897,2.158242245
36.69622621,0.04206994176,0.2270612717,-1.277052045,1.297762932
36.71456631,0.234444052,0.7280282974,-0.8321399689,1.13024163
36.73290647,0.2844335735,1.484467506,-0.6794095039,1.657149212
36.75124657,0.1987803876,2.365411758,-0.1807157993,2.380618539
36.76958668,0.07613697648,2.882785797,-0.1995766163,2.890688779
36.78792683,0.7091839314,3.345452309,0.3684778214,3.439588479
36.80626694,1.320238829,3.954409599,1.544747829,4.445968027
36.82459428,0.04716393352,3.334131241,1.026465178,3.488880383
36.8429472,-2.310691357,2.230167389,-1.475193501,3.533997311
36.8612873,-2.611288786,2.883051872,-1.299983144,4.101313618
36.87961465,-0.5334773064,3.587752342,3.016881227,4.717853034
36.89796756,0.3720806241,3.093112946,5.664693832,6.464870293
36.91630767,-0.7799363136,0.9862318039,3.63395524,3.845332822
36.93463501,-2.278269768,-0.8861198425,-0.5315730572,2.501657735
36.95298788,-2.213886261,-2.142633438,-2.068292856,3.71079584
36.97132803,-1.133567929,-2.525429726,-1.345260501,3.077742251
36.98966814,-0.2046453506,-2.298875809,-0.2735602856,2.324122401
37.00800824,0.200958252,-2.268357277,0.6837518215,2.377676494
37.02634834,0.2639497519,-2.844752312,1.176281929,3.089647935
37.04468845,0.1815398782,-3.731701851,1.403581858,3.991064703
37.06302855,0.03509061038,-4.045490742,0.8631565571,4.136697467
37.08136871,0.09819514304,-3.416665077,0.2965466976,3.430915691
37.09970881,0.2963269055,-2.777692795,0.5256333351,2.842477317
37.11804892,0.2294258177,-2.262316704,0.3506016731,2.300789996
37.13638902,-0.0580336079,-1.789158821,-0.7075406313,1.924856081
37.15471636,-0.1510890871,-0.9693641663,-2.003245831,2.230580341
37.17306923,0.1453166902,0.3522777557,-2.059926033,2.094877519
37.19140933,0.5318940282,1.67757988,-1.142763019,2.098354791
37.20973673,0.4626167119,2.41108036,-0.4995065928,2.505360166
37.22808959,-0.1751226783,2.55844593,-1.14439857,2.808195438
37.2464297,-0.5962660313,2.695560455,-1.967941046,3.390334985
37.26475699,-0.08589749783,3.089020729,-0.7675869465,3.184119527
37.28310991,0.9077628851,3.569946289,1.682523489,4.049621619
37.30145001,0.9066699147,3.243869781,2.202698469,4.024502707
37.31977735,-0.6598623395,2.37739563,-0.1027722359,2.469410946
37.33813022,-1.138416767,2.625162125,-0.498811841,2.904527874
37.35647032,0.1468681097,3.048062325,2.116760015,3.713883027
37.37479761,1.092007399,2.432778358,3.770535231,4.618205996
37.39315053,0.8643161058,0.7084331512,3.120491982,3.314572381
37.41149058,0.6103069782,-0.9223985672,1.778884411,2.09468935
37.42981793,0.7972636223,-2.076631546,1.075623274,2.470828462
37.44817079,1.237572193,-2.609342098,0.4527688026,2.923226079
37.4665109,1.385026336,-2.601935387,-0.3180549145,2.964713247
37.484851,1.379525661,-2.599795341,-0.6444079876,3.012853883
37.5031911,1.435681343,-2.726960659,-0.6578483582,3.151231476
37.52153121,1.16706562,-3.031731606,-0.5796444416,3.299913085
37.53987131,0.722028017,-3.649605274,-0.6928043365,3.78429927
37.55821142,0.6205800772,-3.780007362,-0.6378309727,3.883349539
37.57655147,0.5716552734,-3.589199066,-1.14319551,3.809991557
37.59487881,0.5924845934,-2.863858223,-2.276207924,3.705920186
37.61323168,0.4634771645,-1.99555397,-2.927262306,3.572941553
37.63157178,0.2740684152,-1.214485168,-3.26228857,3.491792439
37.64989907,0.04252146184,-0.01765632629,-3.343173742,3.343490764
37.66825199,-0.03883399069,1.003575325,-2.537193298,2.728739882
37.68659204,0.1548745334,1.792883873,-1.099705338,2.108973811
37.70491939,0.5985635519,2.47785759,0.2853341103,2.56504817
37.72327225,0.4887472689,2.851356506,1.264963388,3.157410362
37.7416123,0.3595876694,3.061310768,1.431596756,3.39858738
37.75995241,0.6506806612,3.45253849,1.0998559,3.681452207
37.77829251,1.234289765,3.421312332,1.286192179,3.857867237
37.79663256,0.5212263465,2.988098145,0.6474616528,3.10155026
37.81495991,-1.541840672,2.617227554,-1.949323297,3.609295505
37.83331277,-2.821042776,2.995266914,-3.338259459,5.298479258
37.85165282,-1.432528973,3.545032501,0.0254445076,3.823616366
37.86998017,0.362695843,3.825267792,4.576378822,5.975572364
37.88833303,0.7878423929,2.373796463,6.973970413,7.408904683
37.90667308,-0.3099117577,-0.01299858093,4.495913029,4.506600517
37.92500038,-1.28549993,-1.827819347,0.7493543625,2.356897452
37.94335324,-1.335061312,-3.043349266,-1.170028687,3.52325568
37.96169334,-0.8720549345,-3.40755558,-1.43459022,3.798679236
37.9800334,-0.2676091492,-3.505230904,-0.6574877501,3.576387631
37.9983735,-0.08948849142,-3.593515396,-0.2151522636,3.601062564
38.0167136,-0.2490463853,-4.078098774,-0.1744265556,4.089417848
38.03505366,-0.4712715745,-4.023385048,-0.5220701694,4.084394864
38.05339371,-0.4579662383,-3.741636276,-0.6224403381,3.820602973
38.07173381,-0.256529808,-3.062134266,-0.7818552256,3.170768266
38.09007386,-0.2485923171,-2.393371105,-1.026504517,2.616053308
38.10841397,-0.4820089042,-1.551010132,-1.758354425,2.393694905
38.12675407,-0.5725048184,-0.6059684753,-2.419224024,2.558828724
38.14508136,-0.1763298213,0.3578290939,-1.964866042,2.004951977
38.16343418,0.3282404542,1.281578064,-0.7128303051,1.502767838
38.18177428,0.2655149698,2.034823418,-0.3754982948,2.086145611
38.20011433,-0.1585103869,2.425127029,-0.2491728067,2.443041903
38.21845438,-0.3852842152,2.918580055,-0.2444339991,2.954031389
38.23679449,0.07762798667,3.220468521,0.5003600121,3.260031249
38.25512178,0.8718247414,3.222132683,1.889765263,3.835808931
38.27347465,1.488940239,2.599207878,3.29570055,4.453590321
38.2918147,0.8177361488,1.69973278,2.43529892,3.08033517
38.31014199,-0.3705145121,1.03540802,-0.1154243946,1.105745704
38.3284948,-0.5676162243,2.011644363,-1.073578835,2.349781423
38.34683491,0.5079711676,2.749484062,0.7795418501,2.902650997
38.36517496,0.8937246203,2.326478004,1.52159214,2.920014768
38.38351501,1.080049634,0.9966917038,1.496167541,2.097240776
38.40185506,1.435909986,-0.5624837875,1.93059051,2.470911819
38.42018235,1.609393239,-2.072346687,1.424507141,2.985630249
38.43853522,1.443946123,-2.99536562,0.134231329,3.327944358
38.45687527,1.219706893,-2.957335472,-0.4986813068,3.237622746
38.47521532,1.157314539,-2.801129818,0.5967040062,3.088974081
38.49355538,0.9506775141,-2.614385128,0.9088301659,2.926562763
38.51189548,0.573867023,-2.65497303,0.388184309,2.743882689
38.53023553,0.1231733859,-3.167267799,-0.1035413742,3.171352679
38.54857558,-0.3912582099,-3.768790245,-1.32450211,4.013872038
38.56691564,-0.7885529995,-3.77598238,-2.732001066,4.726911105
38.58524293,-0.934417665,-3.277288437,-3.606025457,4.961569859
38.60359574,-0.9888209105,-2.44426918,-3.525737762,4.402618015
38.62193579,-0.8069769144,-0.9698123932,-2.827668428,3.096361826
38.64026308,-0.4077236652,0.9484272003,-1.819899321,2.092316008
38.6586159,0.4174711406,2.730195045,-0.5459088087,2.815362067
38.67695595,1.020516157,3.474589348,1.101557016,3.785188532
38.695296,0.8868171573,3.278851509,1.312088013,3.641275442
38.71363605,0.4123130739,2.613329887,0.4221560955,2.679125033
38.73197616,0.2810672224,1.931378365,0.06071019173,1.952666612
38.75031621,1.043347359,1.878427505,0.7685899734,2.282059191
38.76865626,1.556387067,2.537635803,1.712436199,3.4342938
38.78699631,1.052925229,2.754890442,1.555918694,3.334509839
38.80532355,-0.8588647842,2.006859779,-0.555770278,2.252557545
38.82367636,-2.30666256,1.044106483,-2.032925844,3.247096857
38.84201642,-1.971246243,0.2308797836,-0.2007966042,1.994852501
38.86034371,-1.09764266,0.3242692947,2.400074959,2.659009175
38.87869652,-0.9032565355,0.4119024277,2.385320187,2.583657944
38.89703657,-1.106494904,-0.1563825607,1.22452879,1.657786848
38.91537662,-0.9936273098,-1.032408714,0.5750505924,1.543970909
38.93371668,-0.8470164537,-1.331671715,0.2976677418,1.606048727
38.95205673,-0.3275047243,-1.163086891,0.7296762466,1.411544504
38.97039678,0.1855530143,-0.9284830093,1.856886148,2.084355245
38.98873678,0.2174919844,-1.218447685,2.125177622,2.459328658
39.00707689,-0.330701381,-2.181200027,1.03190136,2.435532258
39.02540412,-0.7814756632,-3.136198997,-0.3241424561,3.248309821
39.04375694,-0.7621991634,-3.224549294,-0.930065155,3.441465807
39.06209699,-0.4246507585,-2.618658543,-0.8786971569,2.794603643
39.08043699,-0.3398529589,-2.206339836,-1.118155479,2.49673931
39.09877704,-0.6002750397,-1.64283371,-1.868399382,2.559325882
39.11711715,-0.6588932276,-0.6211595535,-1.895637393,2.100814271
39.13544438,-0.4200525582,0.5581932068,-0.7215468884,1.004317539
39.1537972,-0.2589681447,1.426171303,0.3423788548,1.489379859
39.17213725,-0.4620822966,1.861523628,-0.1187608242,1.921690506
39.19046449,-0.9368932843,2.427495003,-1.292421579,2.90531488
39.2088173,-0.4921107292,3.332445145,-0.6845316887,3.437433235
39.22715735,0.7031698823,3.947035789,0.9566104412,4.12172815
39.24548459,1.593102217,3.763270378,2.264290094,4.671957646
39.26383741,1.323253036,2.823004723,1.795701504,3.59790191
39.28217746,-0.04640543461,1.693651199,-0.3839979172,1.737257105
39.30051751,-0.6452171803,1.920144081,-1.258024812,2.384509369
39.31885756,-0.1096295565,2.007736206,0.7148132324,2.134005921
39.33719756,0.4953421354,1.836400986,2.24447298,2.942004652
39.3555248,0.4918175936,0.6838264465,2.411955833,2.554806078
39.37387761,0.6660184264,-0.3793582916,2.736382008,2.84170367
39.39221767,1.282058477,-1.202563286,3.45930481,3.88028635
39.41054491,1.872419357,-1.843432426,3.386164427,4.286059599
39.42889772,2.078351259,-2.301357269,2.098356009,3.744180441
39.44723777,1.942935586,-2.530573368,0.5734169483,3.241543962
39.46556501,1.441540956,-2.937802315,-0.5430490971,3.317171248
39.48391782,0.9109808803,-3.413497448,-1.259173632,3.750649174
39.50225782,0.531670928,-3.699799061,-1.681227088,4.098501139
39.52059788,0.0829776898,-4.373771191,-1.928078413,4.780611477
39.53893788,-0.2620833516,-4.868104935,-2.162148952,5.333106171
39.55727793,-0.4171081781,-4.151468754,-2.586958647,4.909279691
39.57560517,-0.2840824723,-2.640843868,-2.24885273,3.480243926
39.59395798,-0.1169998646,-1.152849197,-1.466847539,1.869329276
39.61229798,0.05484586954,0.3939914703,-1.367501378,1.424183053
39.63062527,0.1022763848,1.362204552,-1.58039844,2.088952113
39.64897803,0.07030585408,1.733963966,-1.930188894,2.595612282
39.66731808,0.309651792,2.391607285,-1.982459188,3.121828641
39.68565808,0.6574950218,2.699644089,-0.7681273222,2.882776005
39.70399808,0.8385254145,2.918823242,-0.04402041435,3.037201308
39.72233814,1.101043701,3.412532806,0.003482103348,3.585762055
39.74067814,1.703144073,3.565423012,0.1900455952,3.955889068
39.75901819,2.151981592,3.227962494,1.154515743,4.047675041
39.77735819,1.503954887,2.526292801,1.828341484,3.462205684
39.79568543,-0.4944857359,1.889499664,0.7452700138,2.090490975
39.81403824,-2.047346592,1.467933655,-0.141929388,2.523212483
39.83237824,-2.058897734,1.277741432,0.5671932697,2.488652497
39.85070548,-1.275956273,1.412098885,2.47307682,3.120608375
39.86905829,-1.152339339,1.30163002,3.352909803,3.776788426
39.88739829,-1.90627408,0.4699802399,2.718287945,3.353185298
39.90573834,-2.6355474,-0.3339767456,1.629907131,3.11676881
39.92407834,-2.336192846,-0.9312391281,1.424970865,2.89059601
39.94241834,-1.317867994,-1.271258354,2.058726311,2.755218299
39.96075834,-0.2128547132,-1.799016476,2.261301041,2.897455747
39.9790984,0.06979353726,-2.125535011,1.013031006,2.355631983
39.9974384,0.2808828354,-2.572770119,-0.7207782269,2.686552159
40.01576564,0.3978626132,-2.622542381,-2.110103607,3.3894779
40.0341184,0.1769981384,-2.422707558,-2.323730707,3.361631248
40.05245845,-0.07451012731,-2.327853203,-2.435135365,3.369619643
45.07760449,-0.6732630134,-2.900691509,-0.8789703846,3.104816139
45.09594438,-0.2618418932,-1.538554192,-0.6598081589,1.694419365
45.11428428,-0.01984369755,-0.7283649445,-0.384945631,0.8240706302
45.13261142,-0.1683967412,-0.2880525589,-0.2414395809,0.411855327
45.15096407,-0.7240422368,0.7676925659,-0.1649570465,1.06808233
45.16930397,-0.9084002376,1.237721443,-0.4843890667,1.609900037
45.1876311,-0.9407272339,1.548976898,-2.018698931,2.712829249
45.20598381,-1.11222589,1.413639069,-1.683377981,2.463571244
45.22432366,-0.8121811748,1.837676048,-0.2728803158,2.027598379
45.24265079,0.3336200118,2.461050987,2.078934669,3.238833684
45.26100345,1.704699159,2.865253448,3.718185902,4.99405476
45.27934334,2.557703495,2.807751656,3.687046766,5.293357194
45.29767048,1.557653069,2.15702343,1.373638153,2.994313767
45.31602319,-0.01057650149,1.041802406,-1.078443885,1.499501694
45.33436303,-0.6175251007,1.555052757,-1.75715661,2.426339977
45.35269017,0.518271625,2.360628128,0.6660115719,2.506938781
45.37104282,1.246166348,2.575211525,2.668309689,3.91209938
45.38938272,0.8419271708,1.310948372,2.835341692,3.23521089
45.40770985,0.4545403123,-0.3491163254,2.072503567,2.150293035
45.42606251,0.4206400514,-1.677088737,1.617082596,2.367386916
45.44440241,0.4393647313,-2.787405968,0.5813970566,2.881092837
45.46272949,0.7899160385,-2.898099899,-0.2984628677,3.018613996
45.4810822,1.367766738,-2.589925289,-0.6300182343,2.995900838
45.49942204,1.514665842,-2.671652794,-0.4295463562,3.101040364
45.51776194,1.164126515,-2.687813282,-0.1583743095,2.933362099
45.53610183,0.797334671,-2.568132401,-0.7957010269,2.804315733
45.55444173,0.5479064584,-2.290613174,-0.9268513918,2.531040044
45.57278163,0.2300290763,-2.107362747,-1.963631749,2.8895918
45.59112147,0.2744362056,-2.269028664,-2.274036884,3.224135552
45.60946136,0.07964137197,-1.959624767,-1.688045502,2.587657163
45.6277885,0.01002480835,-1.101754189,-1.391442657,1.774845192
45.64614116,0.4241161346,0.7804899216,-1.133262992,1.439904171
45.66448105,0.6943324208,1.533719063,-0.7782301903,1.854732839
45.6828209,0.5505482554,1.344521523,-0.7636780739,1.641354839
45.70116079,0.2570380867,1.072471619,-0.6716156006,1.291251899
45.71950069,-0.3584259748,1.379180908,-0.517875433,1.516180768
45.73784058,-0.6081373096,2.107385635,-0.03554415703,2.19366556
45.75618043,0.08576565981,2.92876339,1.763322592,3.419695499
45.77452032,0.6388357878,2.7373209,2.737784386,3.923837435
45.79284746,-0.3704200387,1.529659271,0.9399213791,1.833172302
45.81120011,-1.564788818,1.186518669,-1.744867086,2.626966263
45.82953996,-1.761136532,1.634494781,-1.695948482,2.940989005
45.84787196,-0.06354033947,1.673331261,2.219215393,2.780106445
45.86622462,0.779661119,1.022999763,4.44732523,4.629589796
45.88456629,0.1756957471,0.2972459793,2.291822672,2.317687496
45.90289343,-0.58877033,0.03196907043,-0.01458144188,0.5898178883
45.92124608,-0.7001750469,-0.05286502838,-0.05996060371,0.7047234078
45.93958593,-0.2694339454,-0.346244812,0.4673504829,0.6410121642
45.95792582,0.08992911875,-0.8386592865,0.2009348869,0.867070628
45.97626572,-0.1641199142,-1.889617443,0.1351046562,1.90153693
45.99460556,-0.3338325024,-3.064157009,-0.140945673,3.085509358
46.0129327,-0.7358847857,-3.920770168,-1.046228886,4.124143549
46.03128535,-0.7469474077,-4.079665661,-1.107882023,4.292901689
46.0496252,-0.3817686439,-2.95813179,-0.7924625874,3.08614451
46.06796514,-0.3016731739,-1.928802967,-0.1752662659,1.960103531
46.08630499,-0.4520435929,-1.360062599,-0.155952692,1.441677816
46.10464483,-0.7806106806,-1.081775665,-0.5093102455,1.427931564
46.12298473,-0.7248398066,-0.8182029724,-0.7018342018,1.29900735
46.14132457,-0.686381042,0.001732826233,-1.24313271,1.420035518
46.15966447,-0.970349431,0.9998235703,-1.075330853,1.759989101
46.17800436,-1.32704854,1.567360878,-1.087005258,2.323630431
46.19634421,-1.425122857,1.791638374,-0.866191864,2.44769924
46.2146841,-0.9644934535,2.252848625,0.5078501701,2.502695816
46.23301119,-0.2784391642,3.051357269,1.936639547,3.624759618
46.25136384,0.6121304035,3.545209885,2.860049009,4.595987064
46.26970369,1.070421815,3.469942093,2.434944868,4.372099896
46.28803077,0.9769735932,2.627773285,0.5764956474,2.862169993
46.30638343,0.9031896591,2.133163452,-0.5265686512,2.375586752
46.32472332,1.140108228,1.938400269,-0.194725275,2.257246177
46.34306317,1.040488601,1.353505135,0.03427577019,1.70756186
46.36140306,0.6114097834,0.437292099,0.1029860973,0.7587176282
46.3797429,0.6158076525,-0.3799552917,0.4943459034,0.8763349592
46.39806999,1.072946191,-0.7591619492,1.508065224,2.000450227
46.41642265,1.53514123,-1.372960567,2.778004646,3.45817714
46.43476249,1.644720674,-1.782896996,2.338114262,3.369066056
46.45308962,1.303678036,-2.2581954,0.4511985779,2.646243194
46.47144223,1.109978318,-3.138317108,-1.165578127,3.526990007
46.48978212,1.036064148,-3.224262238,-1.065053463,3.550159824
46.50812197,1.009778023,-3.012525558,-0.02971076965,3.177395887
46.52646186,0.55259341,-3.121091366,-0.3298718929,3.186751678
46.54480176,-0.3795480728,-3.485756397,-1.762611628,3.924455905
46.56312879,-0.822986424,-3.462661743,-3.224771023,4.802757661
46.58148145,-0.8584951162,-2.690912247,-3.447751284,4.457018229
46.59982129,-0.4364222586,-1.138019085,-2.752598286,3.010373589
46.61814837,-0.105971612,0.6950054169,-1.892803907,2.0191506
46.63650103,0.3032509983,2.147478104,-0.7573006153,2.297199947
46.65484087,0.3869843185,2.695759773,0.0102994442,2.723413978
46.67318077,0.512876153,2.594750404,0.3402569294,2.66674828
46.69152061,0.3640823662,2.44630146,-0.03411531448,2.473481485
46.70986046,0.2082310319,2.267081261,-0.01426482201,2.276668858
46.72820035,0.2066846192,2.059005737,0.1479501724,2.074635489
46.7465402,0.2478831708,2.111731529,0.4348869324,2.17024947
46.76488004,0.356241554,2.15632534,1.185888052,2.486559368
46.78321994,-0.3246117234,1.706313133,0.9160969257,1.96369826
46.80155978,-1.698596239,0.5870895386,-1.114247084,2.114580307
46.81989962,-2.665839434,0.8639659882,-3.463892937,4.455523694
46.83822671,-0.9801845551,2.509874344,-0.4840302467,2.737611416
46.85657936,1.290020585,3.504766464,5.016767979,6.254238725
46.87491921,1.82952857,2.852948189,6.532625198,7.359461946
46.89324629,0.5112586021,0.95337677,2.981580257,3.171771343
46.91159895,-0.8276394606,-0.8773164749,-0.6601090431,1.374923715
46.92993879,-1.387363672,-1.539362907,-2.087244272,2.941259045
46.94827863,-1.162251353,-1.716318607,-2.047872543,2.913822185
46.96661853,-0.6663044691,-1.714251518,-1.55199337,2.406512691
46.98495837,-0.3839766085,-1.711242199,-0.4649264812,1.814371663
47.00328546,-0.4547519982,-1.902866364,0.5330784321,2.027775232
47.02163806,-0.5935843587,-2.362893105,1.117849827,2.680521302
47.0399779,-0.8929759264,-2.707230568,0.9306030273,2.998753966
47.0583178,-0.7664073706,-2.587637901,0.4755978584,2.740336382
47.07665765,-0.4318279922,-1.925218105,0.1186900139,1.976620218
47.09499749,-0.3674928248,-1.504769325,-0.4862596989,1.623524005
47.11332457,-0.8039851189,-1.373160362,-1.744402885,2.361123224
47.13167718,-1.046179056,-1.212310791,-2.146539688,2.678025523
47.15001702,-0.6236447692,-0.8378410339,-2.042057037,2.293666789
47.16835692,-0.1932418495,-0.3680591583,-0.7628684044,0.8687796952
47.18669676,0.2537391484,0.1821088791,0.2132606506,0.3781895085
47.2050366,0.2245131731,0.8959789276,-0.4866878986,1.044054364
47.22336369,0.3466786742,2.096615791,-1.184119225,2.4327191
47.24171629,1.111937046,3.76652813,-0.402266264,3.947778653
47.26005613,2.10556674,4.442312241,1.612879992,5.173870042
47.27839598,2.139638662,3.94904995,2.523368359,5.15174116
47.29673587,0.8769723177,2.56482029,0.9571349621,2.874628828
47.31507572,-0.1473061144,2.878361702,-0.9187297821,3.025017288
47.33340275,0.05634766817,2.995023727,0.6779522896,3.071312666
47.35175541,0.4478677213,1.468093872,3.646895885,3.956732833
47.37009525,0.4341223836,-0.6279363632,4.503710747,4.567951052
47.38842233,0.7211108208,-2.372484207,3.276195049,4.108787672
47.40677494,1.122836828,-2.860826015,1.55664134,3.445028345
47.42511478,1.899364233,-2.275057793,0.7120985985,3.04804148
47.44344186,1.976192236,-1.859032154,0.4102776051,2.744023327
47.46179447,1.480288506,-2.060718536,-0.1469056606,2.541534225
47.48013431,0.7121397257,-2.261499882,-0.6284005642,2.452837535
47.4984614,-0.239199385,-2.447119236,-1.542883754,2.902774393
47.516814,-0.9663016796,-2.986057281,-1.801336884,3.61871408
47.53515384,-1.240821958,-3.41159296,-1.541247606,3.9438623
47.55349369,-1.353039742,-3.829124451,-0.704199791,4.121748166
47.57183353,-1.408795953,-3.524829865,-0.4856333733,3.826874885
47.59017337,-1.379906893,-2.771255016,-1.024356127,3.260874556
47.60850046,-1.005003572,-1.851493835,-1.231225252,2.440077299
47.62685306,-0.7180936337,-0.8862571716,-1.313287139,1.739492268
47.6451929,-0.3710494637,0.3258152008,-0.9470541477,1.068056557
47.66351999,0.04750728607,1.624433517,-0.4892587662,1.69717864
47.68187259,0.1759813428,2.922134399,-0.7368543148,3.018740327
47.70021244,0.1734679341,4.142765045,-0.8777906895,4.23829091
47.71853952,0.2893590033,4.654720306,-0.9482774734,4.759136469
47.73689212,0.3710995913,4.320828438,0.1821780205,4.340560117
47.75523197,0.4675751328,3.47419548,1.716782331,3.903332206
47.77357181,-0.171326369,2.436524391,1.210466385,2.726028742
47.79191166,-1.323513508,1.633693695,-0.6305031776,2.195034704
47.8102515,-1.899066925,1.182559967,-1.259660006,2.567420221
47.82857853,-0.6024522781,1.709041595,1.785051346,2.543654896
47.84693119,0.8029609919,1.999718666,4.992895126,5.43807161
47.86527103,0.04579590261,0.9345664978,3.995365143,4.103468585
47.88359806,-1.84653914,-0.5642681122,0.7377958298,2.066990078
47.90195067,-2.469258547,-1.307974339,-0.7370986938,2.889870088
47.92029051,-1.846232414,-1.228736401,-0.5753126144,2.29114641
47.93863035,-0.8461401463,-0.7335386276,-0.2032792568,1.138136425
47.9569702,-0.1629689038,-0.5841140747,0.05375051498,0.6087998306
47.97531004,-0.2942543626,-1.305127144,0.03584098816,1.338367314
47.99363707,-0.8004073501,-2.438218117,-0.3211715221,2.586254175
48.01198968,-1.326934099,-3.699342728,-0.8276166916,4.016321714
48.03032952,-1.60355854,-4.417768955,-1.170715809,4.843413883
48.04866936,-1.45144105,-4.24142313,-0.7376182079,4.543174211
48.06700921,-1.340551615,-3.172643185,-0.4292473793,3.470878379
48.08534905,-1.230546355,-1.961200714,-0.3402004242,2.340147197
48.10367608,-1.283438921,-0.9332742691,-0.7857847214,1.770783429
48.12202869,-1.105153799,0.2049980164,-1.142758608,1.602899355
48.14036853,-0.5468592644,1.160654068,-0.7304232121,1.476377658
48.15869561,-0.1013492346,1.873774529,-0.5482282639,1.954957002
48.17704822,0.2227945328,2.151339531,-0.02245473862,2.162961719
48.19538806,0.5505543947,2.644698143,0.4579381943,2.739935364
48.21372791,0.4568467736,2.832536697,0.4915452003,2.910943112
48.2320677,0.4005849659,2.376543999,0.6359665394,2.492565572
48.25040754,0.738606751,1.871912956,0.9155695438,2.21085179
48.26874738,1.368642449,1.560614586,1.768101454,2.726698148
48.28708723,1.045274019,0.9720258713,0.7522268295,1.613467469
48.30542707,0.2262394875,0.8852872849,-0.9708547592,1.333220479
48.32376686,0.04978150874,1.736739159,-1.018297911,2.013869842
48.34210671,0.3333146572,1.640254021,1.274156094,2.103569743
48.3604465,0.1706473678,0.5522985458,2.274178028,2.34649524
48.37877358,-0.06759285927,-0.6867723465,2.20068717,2.306349729
48.39712619,0.3584752381,-1.632609367,2.073106766,2.663022626
48.41546603,0.8525508046,-2.007527351,1.283312559,2.530592829
48.43380582,0.9991509318,-2.177106857,0.109957695,2.397954868
48.45214567,0.8322739601,-1.74693346,-0.7463195324,2.073993564
48.47048551,0.5020095706,-1.494818687,-0.522206068,1.661082688
48.4888253,0.1474716812,-1.766671181,0.1697108746,1.780920194
48.50716514,-0.09423196316,-1.931066513,0.4949114323,1.995704103
48.52550499,-0.3868005574,-1.878131866,-0.3166823387,1.943523008
48.54384478,-0.5653682947,-1.036739349,-1.101605654,1.614931826
48.56218462,-0.7343950868,-0.07789516449,-1.644006133,1.802265232
48.58052447,-1.229799867,0.3485956192,-2.121874571,2.477151249
48.59886426,-1.514277339,0.02916145325,-1.881846786,2.415622813
48.6172041,-1.217765093,-0.2000150681,-1.374290586,1.847060492
48.63554395,-0.8723765612,-0.09403800964,-0.9374074936,1.283984743
48.65388374,-0.7992170453,0.2272310257,-0.9129517078,1.234448316
48.67222358,-0.6372756958,0.4775047302,-0.8234295845,1.145498739
48.69056337,-0.4109944105,0.8191356659,-0.8084743023,1.22210079
48.70889046,-0.1850081384,0.6562852859,0.3233420849,0.7546446128
48.72724306,0.3487486541,0.0858001709,1.505010843,1.547270155
48.74558285,0.7463165522,0.8605709076,1.186634541,1.644892767
48.7639227,1.301891208,1.732254982,0.8214657307,2.317419683
48.78226249,1.034948468,2.223145485,0.4306538105,2.489770448
48.80060233,0.00150975585,2.029623032,-0.1219961643,2.033286747
48.81894218,-0.8081322312,2.695725441,-1.086623073,3.016747099
48.83728202,-0.6103019118,3.329708099,0.08929181099,3.3863546
48.85562181,-0.6606584787,3.747216225,1.071219444,3.952924254
48.8739616,-1.3102808,2.647216797,1.165636778,3.17542149
48.89230145,-1.978456974,1.548627853,0.8304014206,2.646149419
48.91064124,-2.108985901,0.7790327072,0.9001061916,2.421756521
48.92898108,-1.607580423,0.3402824402,1.047145367,1.948491821
48.94732087,-1.310090065,-0.02940940857,1.205277205,1.780419622
48.96566072,-1.400919199,-0.8934812546,1.280917168,2.098006708
48.98398775,-1.546228647,-2.128026009,0.4913322926,2.675953128
49.00234035,-1.529649258,-3.216349602,-0.02048635483,3.561622004
49.0206802,-1.299926043,-3.696829796,-0.3089230061,3.930876706
49.03901999,-0.8884020448,-3.715640545,-0.417591095,3.843127005
49.05735978,-0.5564162135,-3.29997015,-0.4781959057,3.380543347
49.07569962,-0.1434371471,-2.938597679,-0.5316557884,2.989747215
49.09403942,0.2826941609,-2.506964684,-0.9514944553,2.696317788
49.11237926,0.6402699947,-1.516821861,-1.0966717,1.978227248
49.13071905,0.8377902508,-0.7421712875,-0.7678749561,1.357329243
49.1490589,0.7386777997,-0.2230243683,-0.3308160305,0.8395379721
49.16739869,0.452155292,0.1415309906,-0.1073069572,0.4857882383
49.18573853,0.4766866565,1.078125954,0.1962835789,1.195036813
49.20406556,0.859074235,2.424909592,1.297787905,2.881396973
49.22241817,1.776941776,2.752209663,3.216276884,4.590927695
49.24075796,2.494921207,1.981245041,4.16384697,5.242860415
49.25908499,1.989232898,0.9667062759,2.546234131,3.372666126
49.27743759,0.600777626,0.4750585556,-0.2852082253,0.8172870481
49.29577738,-0.8527495861,1.293240547,-2.599509239,3.026070266
49.31410442,-0.8898667693,3.098185539,-2.317240238,3.969914209
49.33245702,0.334877193,4.105413437,0.2416572571,4.126131415
49.35079681,1.311960816,3.621711731,1.520573378,4.141277634
49.36912384,1.709616899,1.641418457,2.227716446,3.252655078
49.38747645,1.700507402,-0.5357303619,1.608233452,2.401072111
49.40581629,1.285624146,-2.805364609,0.1380319595,3.089005156
49.42414332,0.1282930672,-4.679893494,-1.706033826,4.98281182
49.44249587,-0.9416397214,-5.960400581,-2.20131278,6.423304322
49.46083572,-0.9560441375,-6.172889709,-0.8411445618,6.302865375
49.47917551,-0.6723798513,-4.705850124,0.1184010506,4.755117124
49.4975153,0.1907142997,-2.941510201,0.5838418007,3.004950158
49.51585514,0.9511247873,-1.139988899,0.09200692177,1.48750742
49.53419494,0.586073041,-0.7761173248,-0.9750010967,1.377122671
49.55253478,0.1901350021,-0.7643718719,-1.810930133,1.974812301
49.57087457,0.05613017082,-0.7178430557,-2.8019526,2.892989392
49.58921436,0.3771941066,-0.4393377304,-3.027462721,3.082340598
49.60755421,0.7334799767,0.3022089005,-3.205038548,3.301756379
49.625894,1.304614425,1.567214966,-3.009794474,3.635525316
49.64422103,1.961418271,2.720665932,-1.841132998,3.826088795
49.66257358,2.214544773,2.994426727,-0.6768686771,3.785360113
49.68091343,1.934423923,2.565880775,-0.2958401442,3.226958546
49.69925322,1.363266945,2.112923622,0.07946395874,2.515801565
49.71759301,0.7149230242,1.718281746,0.5437624454,1.938887487
49.73593285,0.3308991492,1.155894279,1.529760361,1.945701055
49.75425983,-0.3276537955,0.678311348,2.041713476,2.176248426
49.77261244,-1.6812886,0.5183115005,-0.02050113678,1.759488126
49.79095223,-2.3937397,1.040427208,-1.029839396,2.805895171
49.80927926,-0.9481217265,2.092024803,1.826911449,2.934809709
49.82763186,0.6958276629,2.760708809,5.042973042,5.79113688
49.84597166,0.2134263963,1.961127281,4.668193817,5.067899422
49.86429869,-1.983143687,-0.07338523865,1.266120672,2.353997841
49.88265129,-2.950469017,-1.827126503,-1.004499912,3.612849118
49.90099108,-2.052897215,-2.340815544,-0.1089437008,3.115392931
49.91933087,-1.195919991,-2.098923683,0.1856784821,2.422845796
49.93767067,-0.6325711012,-1.887026787,-0.9727885723,2.215250302
49.95601046,-0.3419830799,-1.567982197,-2.194482327,2.718689625
49.9743503,-0.1503910869,-1.710021019,-1.998787165,2.63475606
49.99269009,0.1535117179,-1.576463699,-0.9340400696,1.838813339
50.01102988,0.7282689214,-1.336929321,1.079357386,1.866217564
50.02936968,0.8092458844,-1.354926109,1.21446228,1.991387028
50.04770952,0.2700231671,-1.204789162,-0.8514552116,1.499801791
50.06604931,-0.03810396045,-0.9712648392,-1.609131336,1.879923125
5.169684562,1.584326029,-1.170797348,-1.305942178,2.363544027
5.18801576,-0.06654763222,-1.499564171,-0.6068092585,1.619054899
5.206372479,-0.9759758711,-0.8701639175,-1.140139222,1.73482898
5.224716437,-1.601344109,-0.9867887497,-2.881579876,3.441156429
5.243047635,-2.631293774,-2.455040932,-2.749405861,4.52881502
5.261404406,-5.073328018,-3.626646996,-1.560571551,6.428577539
5.279748365,-8.260289192,-3.779007912,0.115377903,9.084414697
5.298079562,-10.49963474,-2.175963402,-1.733499527,10.86195963
5.316436281,-9.69397831,-1.662410736,-3.742607594,10.5234945
5.33478024,-5.947469711,-2.503371239,-4.473967552,7.852111129
5.353111437,-2.317091465,-2.788079262,0.3544812202,3.642520523
5.371468156,0.3519922495,-5.097216606,1.537016273,5.33553509
5.389812115,1.037414193,-5.076385498,3.403076649,6.198939313
5.408156125,0.6269866228,-2.678956985,3.97674799,4.835746822
5.426500083,2.158226728,-5.507004738,2.210819006,6.314488457
5.444844042,2.665322304,-12.13104725,1.609177709,12.52420469
5.463175187,2.506086349,-16.0848999,-0.09247623384,16.27922067
5.481531958,3.77804327,-12.8440609,0.5573654771,13.39978237
5.499875917,5.832482338,-7.384395599,3.460776567,10.0261719
5.518207062,6.217171669,-3.464873314,5.088589668,8.749418007
5.536563833,5.573565483,-0.4881601334,3.825675011,6.777810989
5.554907792,5.059874058,1.122732162,2.825221539,5.902942464
5.573238937,5.24924469,2.152569771,4.996022224,7.559653729
5.591595708,5.980763435,3.441910744,6.119515419,9.22305534
5.609939667,6.088728428,5.748523712,7.489130497,11.23410941
5.628270812,6.716954231,7.534505367,6.474588394,11.99193646
5.646627583,8.420632362,8.147053719,4.270589828,12.47074461
5.664971542,10.54945374,7.773363113,4.745992661,13.93702244
5.683302687,11.46674156,7.34632349,4.63058567,14.38391305
5.701659406,10.19765282,6.689600468,3.52999115,12.69660249
5.720003365,8.015817642,5.729876041,1.567313671,9.97703784
5.738334562,5.217909336,4.27269125,-2.076211929,7.05642433
5.756691281,-0.4163823128,-0.6078505516,-7.367790222,7.404538425
5.77503524,-8.761989594,-13.04314232,-14.79233074,21.5802936
5.793366385,-12.18336105,-23.80989456,-9.301241875,28.31710554
5.811723156,-8.310092926,-11.35980225,0.4463939667,14.08197497
5.830067115,3.511745214,0.2216963768,-1.732621908,3.922178274
5.84839826,6.282820225,6.297142029,1.715396643,9.059272231
5.866754979,9.887302399,9.022336006,9.500240326,16.41389235
5.885098937,10.10529709,0.8402905464,5.867379665,11.715343
5.903430135,2.875611782,-25.38154221,2.838275909,25.70112134
5.921786854,-2.630273819,-21.1628933,14.14296341,25.58925179
5.940130812,0.7222070694,0.3076105118,2.611722946,2.727142099
5.958461958,5.903517723,3.488561153,5.710463047,8.923618584
5.976818677,10.16290379,4.124387264,4.127821922,11.71896316
5.995162635,10.85795403,3.516438961,4.595526695,12.30363256
6.013493833,6.118495941,0.5100822449,5.296619892,8.108659492
6.031850552,1.45141077,-1.255334854,4.724541664,5.099387488
6.05019451,-2.919112682,-1.422007561,2.655866623,4.194872093
6.068525656,-4.923559189,-0.5450677872,-1.300257206,5.12144538
6.086882375,-2.862503529,1.604356766,-0.4815551937,3.316591999
6.105226333,1.200274229,3.086922646,-0.7743918896,3.401386841
6.123557479,3.50863409,3.514209747,-1.78050518,5.275450884
6.141914198,3.755670071,2.986266136,-1.881280422,5.153839262
6.160258156,2.735575438,2.174338341,-1.04592216,3.647612008
6.178589302,1.330282569,1.097027779,-0.04223108292,1.724791328
6.196946073,-0.2403473854,-0.7558450699,-0.6123639345,1.002027057
6.215289979,-1.604459167,-2.397818565,-1.597368598,3.297788581
6.233621177,-1.990719438,-2.557684898,-2.903803825,4.351642515
6.251977896,-2.063212633,-2.435470581,-3.366409779,4.639081603
6.270321802,-3.898473501,-2.481952667,-1.151961207,4.762898204
6.288653,-7.142263412,-3.608160973,-1.254807115,8.099709449
6.307009719,-9.840917587,-3.466962814,-0.8122017384,10.46533142
6.325353625,-10.34454155,-2.455134392,-2.901407957,11.02068024
6.343684771,-7.003089428,-3.002148628,-4.533496857,8.866157661
6.362041542,-4.344236374,-2.889610291,-2.47903347,5.776490652
6.380385448,-2.357990503,-3.778002739,0.04277050495,4.453678617
6.398716594,0.09615892172,-3.48237896,0.1505893469,3.486959551
6.417073312,1.496447325,-2.31602478,-0.1314439178,2.760543947
6.435417271,3.106162071,-4.683825493,2.259680748,6.057443449
6.453748417,3.891627789,-11.11116314,5.607451439,13.04017733
6.472105135,2.096903324,-16.25655365,1.978770256,16.51024142
6.490449094,1.721029997,-14.783391,0.4148985445,14.88901389
6.50878024,4.181348324,-8.808617592,3.888217688,10.49731654
6.527136958,5.254281998,-4.103238106,3.401901722,7.484449051
6.545480865,4.678183556,-0.6578798294,2.712669373,5.447640074
6.563812062,4.077964783,1.591186047,3.980347157,5.916488257
6.582168781,4.151112556,3.604812145,5.868519783,8.041512949
6.600512687,5.020289421,4.531332016,6.420779228,9.325378363
6.618843833,6.528661728,5.851541996,7.302767277,11.41027509
6.637200552,8.963235855,7.889371872,6.581802368,13.63458499
6.65554451,12.23726273,9.369174957,3.908088684,15.89984892
6.673875656,14.93949032,9.692826271,1.951178193,17.91497554
6.692232323,13.69198418,8.915849686,2.342308044,16.50603566
6.710576281,10.06222057,6.151288033,2.313856125,12.01834254
6.728907427,7.435892105,3.714577913,0.5863530636,8.332730068
6.747264146,4.567336559,1.040783882,-0.9276232719,4.775382631
6.765608052,-0.3589167595,-4.204824924,-6.486487865,7.738468758
6.783939198,-9.889284134,-13.53403854,-18.57934952,25.02319661
6.802295917,-14.39476967,-20.54242706,-10.35842323,27.13848992
6.820639875,-8.67611599,-9.2541008,2.76497364,12.98300618
6.838971021,4.50296402,0.3066663742,0.4712369442,4.537928325
6.857327687,8.672525406,4.705554008,1.794919372,10.0287921
6.875671646,10.01764107,4.773284912,8.561155319,14.01537591
6.894002792,7.405749321,-11.22593689,-5.332234383,14.4671872
6.91235951,-2.251235962,-22.45191002,19.9204731,30.09952783
6.930703417,2.06379509,-4.175462723,3.839435577,6.036141539
6.949034562,4.886336327,4.518647194,6.250535488,9.130369601
6.967391281,6.605545044,5.497934341,6.683850288,10.88734871
6.985735187,8.591415405,3.421527863,5.305501461,10.66150165
7.004066333,5.487901211,-0.6778202057,4.41075325,7.073276763
7.022423052,0.5199518204,-2.468167305,4.96509552,5.56905497
7.040766958,-2.837438107,-2.489193916,3.802141428,5.357557354
7.059098104,-3.581336021,-2.412382126,0.3483838141,4.332081082
7.077454823,-1.499989033,-0.5179300308,-0.7917609215,1.773444099
7.095798729,2.976090193,3.301606655,-0.2066347599,4.449765979
7.114129875,5.616970062,5.166729927,0.02533769608,7.631912789
7.132486594,5.281253338,4.370361805,-0.3041538,6.8617934
7.1508305,3.122947454,2.064830303,-1.16685462,3.921463335
7.169161646,0.543000102,0.5727510452,-0.3787015676,0.8753900548
7.187518312,-1.915092707,-0.2071485519,-1.03602159,2.187197141
7.205862271,-3.602944374,-0.6766061783,-1.532962561,3.973534736
7.224206177,-3.629024029,0.158164978,-1.61564219,3.975566783
7.242550083,-1.583656788,0.6819143295,-3.135531902,3.578342673
7.26089399,0.2849938571,-1.680252075,-3.293579817,3.708387324
7.279225135,-0.458550334,-5.568364143,-3.150244951,6.414124328
7.297581854,-4.415160656,-5.780123711,-1.424516439,7.411661137
7.31592576,-9.222277641,-4.338658333,-2.049206257,10.39584568
7.334256906,-12.22365856,-2.595514297,-2.021395683,12.65861618
7.352613625,-11.4730196,-2.126138687,-3.965795517,12.3238865
7.370957531,-7.294387817,-2.896207809,-5.012395382,9.312369235
7.389288677,-3.904112577,-3.347174644,-0.9945474863,5.237823768
7.407645344,-0.6929981709,-4.009646416,1.504566669,4.338344351
7.42598925,0.2527438402,-3.527088165,2.569829226,4.371298734
7.444320396,0.8461275101,-3.768525124,4.684164047,6.071170084
7.462677115,2.668601513,-9.074430466,6.395823479,11.41811194
7.481021021,3.143776417,-14.44264412,3.997624159,15.31190054
7.499352115,2.650284767,-15.53501701,-0.8498196602,15.78236219
7.517708833,4.720928192,-10.49827099,1.239829063,11.57747956
7.53605274,5.955369949,-5.063603401,3.506059408,8.567319488
7.554383885,5.936580658,-1.174865723,3.515978336,6.998957282
7.572740552,5.142351627,1.820423126,4.613516808,7.144386464
7.59108451,4.51284647,3.985537529,5.296664238,8.019036395
7.609415604,4.772690773,4.925084114,5.423301697,8.743410778
7.627772323,5.885930538,5.555785179,6.270470142,10.23863873
7.646116229,7.261258602,7.578107357,5.592365265,11.89235624
7.664447323,8.890714645,9.186447144,4.884783268,13.68563939
7.682804042,10.61620331,9.248142242,3.988849878,14.63361989
7.701147948,11.3964653,8.633790016,3.028120279,14.61476185
7.719479042,10.26744652,7.224771023,2.882321358,12.88120921
7.73783576,7.989354134,5.282392979,2.421983242,9.879243791
7.756179667,5.50500536,2.467263699,-0.08308720589,6.033189675
7.77451076,1.191633701,-2.868756294,-4.977320671,5.867152173
7.792867479,-6.85654974,-12.74356365,-15.56808853,21.25502457
7.811211385,-13.43454933,-20.3594017,-13.15983105,27.71594318
7.829542479,-12.75261497,-10.03730774,-2.446697712,16.41228397
7.847899198,-0.06632947922,1.318126202,-2.466691971,2.797574943
7.866243052,7.855804443,3.127315521,6.897055626,10.91160585
7.884574198,10.26672363,-1.578250885,12.96132374,16.61000912
7.902930865,10.55360508,-16.83841705,-5.415333748,20.59700727
7.921274771,0.7621006966,-14.3789959,17.60874939,22.74652447
7.939605917,1.849932194,1.42587471,5.199214935,5.69975471
7.957962583,4.790980816,4.72935009,5.132205486,8.465210134
7.97630649,8.082395554,3.704644203,5.275308132,10.33820016
7.994637583,9.892518997,1.978815556,3.951424837,10.83473125
8.012994302,6.144632816,-0.9570951462,4.175543308,7.490507692
8.031338156,1.625152111,-2.777687073,6.09437561,6.891885006
8.049669302,-2.642783403,-2.385339737,4.235752583,5.533150072
8.068025969,-5.365695,-0.6292247772,-0.616148293,5.437485206
8.086369875,-4.584870338,2.173603535,0.09777510166,5.074953036
8.104700969,-0.6895325184,4.177804947,0.2565487623,4.242089878
8.123057687,2.082426786,4.988771439,-1.084319472,5.513627708
8.141401542,2.804985762,4.089871407,-2.380120754,5.500906112
8.159732687,2.370035172,2.521640778,-2.42141223,4.223621208
8.178089354,1.454715252,0.3390874863,-1.789588809,2.331052314
8.19643326,0.5428586602,-1.432074547,-1.321116924,2.022593128
8.214777115,-0.1422916651,-1.33487606,-0.6423383951,1.488200131
8.233121021,-0.7703561187,-0.5583639145,-1.221552968,1.548357344
8.251464927,-2.370226145,-1.788984299,-3.060437918,4.264354236
8.269796021,-5.236317635,-3.370499611,-2.910992384,6.874093879
8.288152687,-8.237837791,-3.560922623,-1.174306512,9.05102962
8.306496594,-10.63223457,-3.642296791,-1.273566842,11.3107343
8.324827687,-10.90755939,-2.522835732,-1.840746403,11.34583181
8.343184354,-8.761816025,-2.800736427,-4.118279934,10.07838153
8.36152826,-6.653432846,-3.42696476,-2.327992678,7.837844475
8.379859354,-4.895985603,-5.210849762,1.363232493,7.278875813
8.398216021,-1.811466455,-5.698182106,0.80138731,6.032653782
8.416559927,0.5242295265,-4.100509644,2.52529335,4.844182329
8.434891021,2.815525055,-5.168093681,-0.06781935692,5.885658255
8.453247687,4.744029999,-11.48806667,4.965948105,13.38439902
8.471591594,4.748822212,-15.92219162,3.668484926,17.0154424
8.489922687,4.064353466,-13.15487766,-0.2112037092,13.77005383
8.508279354,4.855775833,-7.781738281,1.185690999,9.248776825
8.52662326,5.327946186,-4.030583382,2.706463099,7.208158951
8.544954354,5.610092163,-1.334921837,3.716584921,6.860623431
8.563311021,5.641853809,1.44231987,3.553291798,6.821780091
8.581654875,5.464755535,3.584124565,5.290328026,8.408155123
8.599985969,5.436225414,5.367121696,6.366740227,9.944542381
8.618342635,5.633442879,7.318882465,6.174517155,11.10974263
8.636686542,5.877053261,9.189023018,5.507148743,12.21910743
8.655017635,7.215456963,10.02067566,4.721736908,13.22011949
8.673374302,9.165559769,10.24234772,3.9726789,14.30717828
8.691718156,10.72486496,9.104384422,3.908411026,14.60096644
8.71004925,9.994948387,7.427341461,3.416593313,12.91268773
8.728405917,8.118177414,5.777311325,1.92446506,10.14818685
8.746749771,5.961395264,3.466444492,-0.3599145412,6.905360916
8.765080917,1.146214962,-1.578417778,-5.362731934,5.706496755
8.783437531,-7.44318676,-12.37341022,-14.71083736,20.61337056
8.801781437,-14.2036047,-22.3071003,-14.02504921,29.9341129
8.820112531,-11.84025574,-11.60375595,-4.669397354,17.22330049
8.838469146,1.535742044,-0.9411935806,0.3160459995,1.828724708
8.856813052,8.230923653,3.91800499,-0.316464901,9.121349533
8.875144146,9.020580292,5.519226074,2.844039679,10.95085782
8.893500812,7.971477509,-0.9458723068,10.28651237,13.04804449
8.911844667,6.650290489,-16.78424072,-1.635270596,18.12763664
8.93017576,-0.2467374802,-15.6869688,15.39329433,21.97943084
8.948532427,0.5166759491,1.332110405,6.907245636,7.053475345
8.966876281,1.920649767,4.980478287,7.338759422,9.074769934
8.985207375,4.046336651,3.514231205,6.346076012,8.30634348
9.003564042,5.893090248,1.402544975,3.637723446,7.066022711
9.021907896,4.329333782,-0.4580717087,1.738963008,4.687958301
9.04023899,1.555366516,-1.006278992,2.688292742,3.264763433
9.058595604,-0.782856226,-0.3538284302,1.366091609,1.613773439
9.07693951,-1.947384119,0.7951450348,-0.4862885475,2.158943511
9.095270604,-0.3991782665,1.774956226,-0.8955331445,2.027755534
9.113627219,1.661613464,3.203394413,-0.4387095571,3.63526631
9.131971125,2.204781055,4.08028698,-1.292527556,4.814605781
9.150314979,1.450711012,3.145144463,-2.018713713,4.008952629
9.168658833,0.3875981569,1.227869034,-1.330564141,1.851565724
9.187002687,-0.1902502775,-0.3025064468,-1.937870026,1.970544482
9.205333781,-0.05762803555,-1.226442337,-2.722043991,2.98613551
9.223690448,0.8122965097,-0.5466308594,-1.317738414,1.641665448
9.242034302,0.2320359051,-0.8309345245,-1.601800442,1.819356342
9.260365396,-3.388364792,-2.294823647,-2.366780281,4.727460252
9.27872201,-8.439620018,-3.522117615,-1.286932349,9.235187784
9.297065917,-12.63703251,-4.263161659,0.3458886147,13.34124345
9.315396958,-12.97953129,-3.109696388,-1.579011321,13.43993009
9.333753625,-8.933838844,-2.179294586,-3.118057489,9.710050664
9.352097479,-6.320616722,-2.755682945,-4.879696846,8.44721407
9.370428573,-5.029198647,-3.41744709,-1.724805355,6.32034312
9.388785187,-2.789711237,-4.015073776,1.257562041,5.048244101
9.407129094,0.01552431285,-3.775383949,1.172614455,3.953326401
9.425460135,1.890601873,-2.773285866,0.4885021448,3.391773029
9.443816802,4.16017437,-7.129076004,0.9568220973,8.309409364
9.462160656,4.753024101,-14.01505184,3.857954502,15.29368266
9.48049175,4.147589207,-17.39561844,-0.1101186126,17.88357244
9.498848365,4.888755798,-11.11306953,-0.7075271606,12.16144903
9.517192219,5.980125427,-5.430152893,3.309026718,8.72915336
9.535523312,5.384546757,-2.170531273,4.664853096,7.447509932
9.553879927,4.467950821,-0.4871463776,4.087768078,6.075339002
9.572223781,3.521780729,1.384944916,2.143321753,4.349119458
9.590554875,3.279824495,2.576657295,3.103010893,5.198565969
9.60891149,3.759450674,3.817004681,5.202919006,7.468156418
9.627255344,4.644433975,5.482195854,6.856953621,9.931920826
9.645586437,5.942887306,7.458659649,6.672326565,11.63913464
9.663943052,8.271435738,9.177380562,6.307913303,13.87194051
9.682286906,10.78837776,10.33644867,3.688883066,15.38957843
9.700618,12.04920578,10.47089577,2.43044281,16.14713815
9.718974615,10.69909668,9.150567055,2.288887978,14.26332904
9.737318469,8.218172073,7.267559528,0.7158222198,10.99400633
9.755649562,5.734961987,4.506521225,-1.287566185,7.406507221
9.774006177,2.196471691,-2.666967392,-5.956713676,6.886192038
9.792350031,-5.856695175,-16.17062759,-15.03228951,22.84206214
9.810681125,-13.31563663,-26.95380783,-18.49006271,35.29442385
9.82903774,-10.9710741,-6.286209106,-2.205226898,12.83526071
9.847381594,3.059051991,3.211137772,1.750602245,4.767998856
9.865712635,9.008711815,-2.660910606,10.50372887,14.09133258
9.884069302,7.495714664,-9.772711754,6.105053425,13.74639264
9.902413156,3.330965519,-14.8105402,7.60848999,16.98047562
9.920744198,2.047533035,-1.231841087,10.75189877,11.01422494
9.939100812,3.6021595,5.145855904,7.019007683,9.419227935
9.957444667,4.754554749,4.94378376,6.19395256,9.241852468
9.97577576,8.250491142,1.78726387,2.655558109,8.849683898
9.994132375,8.3692379,-1.652878761,1.239821672,8.620516748
10.01247623,4.227879524,-1.932467461,1.694749236,4.947885481
10.03080727,0.9510865211,-0.5366001129,2.825747967,3.029415261
10.04916388,-1.479447842,1.0343256,2.386110544,2.992009173
10.06750774,-3.385950565,1.499032974,0.8442516327,3.797962863
10.08585159,-3.710048914,2.068583012,0.6897302866,4.303397087
10.10419545,-2.35128355,3.581293106,-0.4014959335,4.302951735
10.12253925,-0.2484161854,3.738201141,-1.955919981,4.226284579
10.14087034,1.233608484,2.704659939,-2.055675268,3.614246268
10.15922696,1.78318131,2.347772598,-1.208916068,3.186416454
10.17757081,1.702456474,2.024149895,-0.5698620081,2.705602253
10.19590185,0.891934514,0.5484876633,-1.360898256,1.717099286
10.21425847,-0.3256207705,-1.915003777,-1.965576172,2.76346848
10.23260232,-1.465465665,-4.279110909,-2.577384949,5.205890217
10.25093336,-3.135954142,-4.964465141,-2.177525997,6.262726402
10.26928998,-5.832495213,-4.015511513,-3.359237194,7.837525607
10.28763383,-8.621736526,-3.041809082,-1.321557045,9.23761096
10.30596488,-10.79877472,-2.840771675,-1.942764759,11.33392492
10.32432149,-11.55627346,-2.072771072,-2.381890297,11.97986801
10.34266534,-9.112201691,-2.181588173,-3.718810081,10.08072889
10.36099638,-6.519144058,-2.229620934,-2.461979151,7.316542223
10.379353,-4.675087452,-3.757184029,1.455469131,6.171812125
10.39769685,-2.591998577,-5.144150734,0.3091664314,5.76856371
10.4160279,-0.7963328362,-4.747296333,0.3331708908,4.825139511
10.43438451,2.271307468,-6.637713432,1.943630695,7.279819881
10.45272836,4.722987652,-10.82097149,6.133983135,13.30510374
10.47105941,4.919082642,-14.15828705,3.601702452,15.41514602
10.48941602,4.761467457,-13.46229458,-0.04917572439,14.27961365
10.50775982,5.144487381,-8.298313141,1.282488465,9.847463027
10.52609086,4.949184418,-3.945883751,3.217354536,7.1004081
10.54444748,4.370015144,-1.030593872,3.017050266,5.409412944
10.56279133,3.867487192,1.090862274,3.184114456,5.126989619
10.58112238,3.988731146,2.851438046,4.483717918,6.644125334
10.59947899,4.750368595,4.297724724,5.569680214,8.48868525
10.61782279,5.853321552,6.161282063,7.043597698,11.03789103
10.63615383,6.976474285,8.375249863,6.521018028,12.70195575
10.65451045,8.712581635,9.611934662,4.016120434,13.580412
10.67285425,10.29227257,9.759725571,3.552043438,14.62190584
10.6911981,10.46150017,8.980158806,3.760421515,14.29080151
10.70954191,9.134278297,7.622015476,3.301162004,12.34616663
10.72788576,7.35835743,6.367432594,2.076288223,9.949904255
10.7462168,4.814712524,4.304382801,-0.6662797928,6.492541625
10.76457336,0.17156744,1.224890232,-5.379098892,5.519465224
10.78291722,-6.955479145,-7.553566933,-14.9409523,18.12917867
10.80124826,-10.75354004,-19.04779625,-13.04384708,25.46760908
10.81960488,-9.536588669,-15.64468288,-2.650664091,18.51293186
10.83794868,-0.1720523834,-2.448880196,-0.9367773533,2.627578361
10.85627972,6.930007935,2.677191734,-2.5633111,7.858939455
10.87463628,9.0632267,3.510255814,0.6874041557,9.743536245
10.89298014,6.94198513,-4.497480392,8.503188133,11.86265973
10.91131118,0.307882309,-17.65035629,1.447354198,17.71227549
10.92966774,-3.043126583,-7.063063622,15.56765938,17.36374112
10.94801159,3.394351959,2.135923862,5.389619827,6.718020382
10.96634264,3.828442574,5.165537834,7.565678596,9.928708188
10.9846992,5.81261158,3.033968925,6.425379753,9.180246499
11.003043,7.792563438,-0.7666931152,4.500529766,9.031424663
11.02137404,4.442376137,-2.163388252,2.555762053,5.562991474
11.03973066,0.6222791672,-1.509620667,2.895382404,3.324067566
11.05807446,-1.676991701,-0.7710762024,2.210590839,2.879856166
11.0764055,-2.362985611,0.4529571533,-0.4561235607,2.448860936
11.09476206,-1.13409853,1.8610816,-0.4645642936,2.228368053
11.11310592,0.4757869244,3.378193855,0.482288003,3.445456231
11.13143691,0.7068762779,4.607570648,-0.2495670319,4.668154352
11.14979352,0.1738628149,4.063494205,-2.551353216,4.801209917
11.16813732,-0.07227444649,2.192098141,-3.525767803,4.152295324
11.18646837,-0.252720952,1.026592255,-0.9445810318,1.417742171
11.20482498,-0.3955967426,0.2492666245,-1.1445086,1.236337563
11.22316878,0.3544715047,0.1217136383,-1.03789258,1.103487773
11.24149977,0.7064021826,0.6271018982,0.2623472214,0.9803503959
11.25985638,-1.223419905,-2.205774307,-1.50175035,2.935549467
11.27820019,-5.150419712,-6.969183922,-3.453566313,9.328636986
11.29653123,-9.069872856,-5.964031219,-1.185052037,10.91955175
11.31488779,-10.28549767,-3.842219353,-1.25216496,11.05088362
11.33323159,-8.731350899,-3.277191162,-2.590397835,9.679185471
11.35156264,-6.951884747,-3.279162407,-2.89068985,8.212045752
11.36991925,-6.238440037,-3.513864517,-3.735616207,8.075902822
11.38826305,-5.899534225,-4.48313427,-1.240894318,7.512843381
11.40660685,-5.265463829,-5.324795723,-0.01742887497,7.488582148
11.42495066,-3.5764575,-2.892167091,-0.7913558483,4.667110757
11.44329446,-0.2457150519,-2.181978226,-2.046224117,3.001406004
11.46162545,4.199411392,-5.187109947,4.917433739,8.289892654
11.47998206,5.625665188,-10.73546124,7.018717766,14.00573582
11.49832586,3.988620281,-14.11280632,1.525443316,14.74474046
11.51665685,2.60630703,-10.98738098,-0.5901669264,11.30768209
11.53501347,2.653539658,-6.052974701,2.617996216,7.108704497
11.55335727,2.485608816,-2.809609413,4.348605633,5.743041632
11.57168826,2.362178802,-0.1714763641,3.217062235,3.99484446
11.59004488,2.611134768,2.197766304,4.378214836,5.551303149
11.60838868,3.558706045,4.170222759,6.342913151,8.38377563
11.62671967,4.719712257,5.584208488,5.888735294,9.388092011
11.64507628,5.672676563,7.328350544,6.130216599,11.1114147
11.66342008,7.020460606,9.016152382,6.006122589,12.9093524
11.68175107,9.112333298,9.958618164,4.208089352,14.13919057
11.70010764,11.14974022,10.31229591,2.093398571,15.33109492
11.71845144,11.70109558,9.869732857,1.511700034,15.3822138
11.73678248,9.066228867,8.885310173,2.588568211,12.95553658
11.75513904,5.891639233,6.427274227,1.264939904,8.810297373
11.77348284,1.884543657,1.628181458,-2.485427856,3.518498442
11.79181389,-4.369091511,-7.511287689,-10.47614479,13.61095195
11.81017045,-8.989994049,-20.89819336,-16.67524147,28.20670411
11.82851425,-10.84780312,-17.96217728,-3.416472912,21.25998429
11.84684524,-3.355293751,-1.954239845,0.6575369835,3.938198117
11.86520185,4.914122581,3.574450016,-1.254144669,6.204689558
11.8835456,9.726387024,2.126269341,-0.4022762775,9.964208551
11.90187665,6.916302204,-8.122411728,7.122447014,12.82723898
11.92023321,0.6662118435,-23.75788879,0.2770146132,23.76884211
11.93857701,-1.933504581,-4.757165909,15.12303352,15.97107418
11.956908,5.091187,5.656637192,3.057957172,8.201757827
11.97526462,7.525115013,9.052350044,7.409074306,13.9092336
11.99360842,8.791010857,6.878696442,6.92587471,13.13644081
12.01193941,7.881735802,0.1760234833,5.99943924,9.906867048
12.03029597,2.569338799,-5.1689291,5.34360075,7.865964587
12.04863977,-2.892620325,-5.135658264,3.661586046,6.938980511
12.06697081,-6.449530602,-2.4382267,1.007518053,6.968248492
12.08532738,-5.850467682,0.9195804596,-0.3589710891,5.93316615
12.10367118,-1.86305356,3.151586056,-1.350578547,3.902246231
12.12200217,2.514241457,4.106568813,-0.2361871004,4.820902599
12.14035873,4.309326649,4.692492485,-0.2692512274,6.376698057
12.15870253,3.819304943,3.742600441,-2.042518377,5.724161915
12.17703352,2.301282883,1.761629105,-2.211573601,3.645586071
12.19539014,0.6135314107,-0.06672763824,-1.910632849,2.007832476
12.21373388,-1.484063387,-1.340809822,-1.337682009,2.406160483
12.23206493,-2.954040766,-1.421235085,-1.215898871,3.496380425
12.25042149,-2.633010149,-0.3363304138,-1.873981833,3.249256608
12.26876529,-1.800932407,-0.6238603592,-2.631489992,3.249199726
12.28709628,-2.620985508,-2.672304153,-3.289016247,4.982810692
12.30545284,-5.952983379,-3.871163368,-2.30619359,7.466086379
12.32379665,-9.822798729,-3.323219299,-0.3305344582,10.37498985
12.34212764,-11.95450401,-2.181736946,-1.933085203,12.30475358
12.36048425,-10.37337112,-2.079146385,-2.782803774,10.93954638
12.378828,-7.162512779,-3.049679756,-3.450275421,8.515077006
12.39715904,-5.212331295,-3.406729698,-0.05110216141,6.227103355
12.4155156,-3.046927691,-5.133673668,-0.2304446697,5.974234547
12.43385935,-0.6295795441,-4.817867279,1.125346899,4.987446357
12.4521904,0.9194600582,-2.53407383,2.502885342,3.678501326
12.47054696,3.29382205,-3.863739967,1.785842299,5.382098378
12.48889076,3.984591961,-10.06984997,2.397943974,11.09184325
12.50722175,3.210848331,-15.26459789,-0.1476549059,15.59933645
12.52557831,2.920669556,-12.56983566,-1.554678917,12.99800392
12.54392212,3.881303549,-5.75535202,2.34256506,7.326404655
12.5622531,3.867897511,-1.618836403,3.798476219,5.657710141
12.58060967,3.319543362,0.7757530212,3.105263233,4.611271042
12.59895347,2.615531206,2.654826164,3.616249084,5.192914682
12.61728446,2.696894407,3.792949677,4.447961807,6.437706962
12.63564102,3.516521931,4.358903885,4.205658436,7.003822702
12.65398482,4.58109045,4.928626537,5.011264801,8.389906088
12.67231581,5.788234711,6.210075378,5.845215797,10.30704832
12.69067238,6.932323456,7.859385014,5.19711113,11.69773505
12.70901618,8.52175808,8.815263748,3.762949467,12.82532746
12.72734717,10.02309608,8.857022285,2.790087223,13.6635971
12.74570373,10.13869667,7.938629627,2.854315281,13.18947028
12.76404753,7.877250671,6.372255802,2.119068623,10.35119191
12.78237852,5.686295509,4.22290802,0.06693291664,7.083176461
12.80073508,2.208666325,0.6571006775,-4.937964439,5.44917251
12.81907889,-4.677676201,-7.07300663,-12.43764687,15.05334305
12.83740988,-13.05420113,-19.06909943,-17.27677155,28.85358825
12.85576644,-13.88082981,-15.32473564,-8.959133148,22.53421899
12.87411024,-0.9281277657,-2.998058319,-0.8505198956,3.251639421
12.89244123,10.41302586,0.6504187584,0.7778255939,10.4622734
12.91079779,11.98813438,-1.232029915,2.345646381,12.27743135
12.92914159,8.763505936,-7.802951813,3.27106142,12.18133556
12.94747258,0.9351305962,-12.38361454,7.581149101,14.54998969
12.96582915,-0.2088575363,-1.486431122,11.05161476,11.15308423
12.98417295,2.190432549,2.991398335,6.074372768,7.116492343
13.00250394,0.76130867,4.240105629,7.895439625,8.994223341
13.0208605,2.427555561,2.378227711,3.888063431,5.163916177
13.0392043,3.751271486,-0.7204322815,2.901337147,4.796750741
13.05753529,1.517169952,-0.5989685059,1.795441985,2.42573285
13.07589185,-0.3473303318,0.3736591339,0.8139506578,0.9606118785
13.0942356,-0.5422852039,0.6860389709,1.086502433,1.394707944
13.11257941,-0.4246041775,1.095936775,1.020394802,1.556461267
13.13092321,-0.009224414825,1.549847603,0.3339782953,1.585450782
13.14926696,0.2509746552,2.58225584,0.1312422752,2.597740949
13.167598,0.1564567089,3.8645401,-0.5486779213,3.906430128
13.18595451,-0.1171488762,3.635097504,-2.082499027,4.190997485
13.20429831,-0.3231256008,2.787995338,-1.877966642,3.376993762
13.2226293,-0.5528644323,2.199726105,-0.2485774755,2.281719697
13.24098586,-1.167238712,1.556241989,-0.2076158524,1.956384339
13.25932967,-1.76650548,-0.09962749481,-1.367492914,2.236180699
13.27766066,-1.599485517,-2.46352005,-2.366327286,3.771841696
13.29601722,-0.0762899071,-3.59125042,-2.581189871,4.423283947
13.31436102,-0.1550418437,-4.143004417,-1.878289223,4.55153754
13.33269201,-4.617019176,-4.274121284,-2.36391592,6.721091973
13.35104857,-9.582674026,-4.19534111,-2.509119272,10.75751868
13.36939232,-12.49505043,-3.139019012,-1.812865973,13.01023477
13.38772337,-11.86974525,-2.168996811,-3.317358732,12.5140029
13.40607988,-7.366272449,-3.079950333,-4.424839497,9.128377097
13.42442368,-5.137187958,-3.464715958,-1.338588238,6.339304004
13.44275467,-4.464514732,-5.035889626,0.8515231609,6.783595493
13.46111123,-3.44672966,-4.668231964,1.317547917,5.950484647
13.47945503,-1.816925049,-3.041588783,0.8372995853,3.640542481
13.49778602,1.991008401,-4.719410896,1.806295633,5.431358723
13.51614258,4.618318081,-10.22912121,5.694033146,12.58514188
13.53448633,4.498043537,-13.97606754,2.180836201,14.84314341
13.55281738,3.349614143,-11.43688679,-0.9675532579,11.95652347
13.57117388,3.73678112,-6.27419281,1.616129398,7.479365133
13.58951769,3.781793118,-2.232158661,4.055652142,5.977692344
13.60784868,3.238102198,0.9560575485,3.954607725,5.199834049
13.62620524,2.556884289,3.300685406,3.046550274,5.168524933
13.64454904,2.879890203,4.270435333,3.703443766,6.343964159
13.66288003,3.709777355,5.046225548,4.563344479,7.749255005
13.68123659,4.606396675,6.010424137,6.190582275,9.780971196
13.69958034,5.415122032,8.298179626,6.221147537,11.69982942
13.71791133,6.946835041,9.384057999,4.6621418,12.57197788
13.7362679,9.054377556,9.240174294,2.951753616,13.26934148
13.7546117,10.3615551,8.131688118,2.207401514,13.35510379
13.77294269,9.246639252,6.549816608,2.432800293,11.58960536
13.79129925,6.863402367,5.043190002,1.528138757,8.653049492
13.809643,4.046356201,3.344492912,-1.434024811,5.441971932
13.82797399,-0.2119631767,0.06713962555,-6.053009987,6.057092208
13.84633055,-7.209363937,-8.247629166,-14.22459984,17.95376161
13.86467435,-12.42004204,-18.40984344,-14.9331789,26.76153232
13.88300534,-11.38918304,-11.25907612,-3.223305225,16.33615567
13.90136191,0.3569860458,-0.3505754471,-0.9982347488,1.116608613
13.91970566,8.134029388,2.391139507,0.08531212807,8.478635527
13.93803665,8.375133514,-3.399410248,8.137493134,12.16213986
13.95639321,5.677487373,-14.87512207,0.8589740992,15.94493512
13.97473701,-2.02083683,-9.007680893,14.3617487,17.07284165
13.993068,1.582206726,2.383068085,2.791055679,3.996546437
14.01142451,4.314340115,5.527828217,6.938994408,9.865092945
14.02976831,5.614588261,5.107705116,6.282239914,9.852857008
14.0480993,7.455449104,1.70144558,4.097115993,8.675540206
14.06645586,4.928486824,-1.982011795,4.182491779,6.76103473
14.08479962,0.6769702435,-2.700856209,3.574933052,4.531341887
14.1031306,-2.142999411,-1.719722748,2.226399899,3.536488274
14.12148717,-3.343265057,-0.3487453461,0.5406502485,3.404606768
14.13983097,-2.691453218,1.699836254,0.04064667225,3.183553968
14.15816196,-0.2304532528,3.88906002,-0.23945117,3.903233712
14.17651852,1.833018899,4.771676064,-0.9630849361,5.201575082
14.19486227,2.109614849,4.073767185,-1.82038486,4.935570375
14.21319326,1.41986835,2.21252346,-1.880421758,3.23222403
14.23154982,0.4175260663,0.2348804474,-1.75874567,1.822822859
14.24989357,-0.721568048,-1.430124283,-1.71564734,2.347202954
14.26823738,-1.379347563,-1.294156075,-1.191141605,2.235231077
14.28658113,-1.226566076,-0.1948757172,-1.410546422,1.879383434
14.30492493,-1.047702312,-0.8209457397,-2.122391701,2.505230244
14.32325592,-2.345675468,-3.522107124,-2.720514297,5.030768335
14.34161248,-5.233377457,-4.070782661,-2.509795666,7.089328978
14.35995623,-8.833926201,-2.892929077,-2.162105799,9.543688608
14.37828722,-11.55002594,-1.94678688,-0.9709354639,11.75311848
14.39664378,-12.47888184,-1.329227448,-2.217795372,12.74393792
14.41498753,-9.579471588,-2.303356171,-5.457859039,11.26321228
14.43331857,-5.777925968,-3.074861526,-2.466356993,6.994434839
14.45167514,-3.622750044,-4.408205986,2.144308567,6.095462011
14.47001889,-1.353668571,-6.508374214,-0.5329818726,6.668989668
14.48834988,0.157032162,-5.239336967,3.042863846,6.06088536
14.50670644,1.885621667,-2.663180351,1.260608196,3.498175479
14.52505019,3.250259876,-5.516382217,2.325420618,6.811919192
14.54338118,2.779662132,-11.82136536,1.135016561,12.19669886
14.56173774,1.765554547,-15.09000111,-0.5403270721,15.20254155
14.58008154,2.18102026,-10.49919891,1.005987048,10.77042419
14.59841253,3.686453342,-4.912486076,2.89102602,6.788261128
14.61676904,3.918831825,-1.64307785,2.873589754,5.12976274
14.63511284,3.305840731,1.03640461,2.458782434,4.248332439
14.65344383,3.23000598,3.158675194,2.534047604,5.179919388
14.6718004,4.175940037,5.042744637,3.342607021,7.351242777
14.69014415,5.499856949,5.9433918,5.004584789,9.519359299
14.70847514,6.546310425,7.401087284,5.851734161,11.48359987
14.7268317,6.985847473,9.333064079,5.832287788,13.03547969
14.74517545,7.265480995,10.22690201,3.966646671,13.15716628
14.76350644,7.294694901,10.03621101,2.134672403,12.58947701
14.781863,6.824747562,8.698241234,2.423212051,11.31850416
14.80020675,5.830972672,6.892385006,2.720098495,9.428899681
14.81853774,4.719614029,5.137698174,1.622235775,7.162565742
14.8368943,2.792119265,2.721526146,-0.7358996868,3.967894013
14.85523805,-1.020110369,-1.923407555,-6.168725491,6.541658503
14.87356909,-8.03294754,-10.23220348,-14.58204079,19.5412934
14.8919256,-14.42899895,-20.47755814,-15.20465088,29.30371659
14.91026941,-13.05932522,-10.33550549,-5.251268864,17.4626594
14.9286004,1.147913218,-0.01337432861,-2.258149862,2.533204379
14.94695691,11.12452507,2.71932745,-1.632033587,11.56777133
14.96530071,13.03027725,-1.446751595,5.081847191,14.0608103
14.9836317,9.421016693,-9.04967308,9.175853729,15.96397288
15.00198826,0.7018225193,-12.28222847,5.705629349,13.56096963
15.02033201,-2.622583389,1.352477074,10.65453529,11.05559859
15.038663,-1.109746456,6.638764381,4.275898457,7.974210765
15.05701956,1.466585159,4.769028187,4.076107979,6.442760133
15.07536331,6.242489815,1.240461826,3.272115469,7.156407218
15.0936943,7.44282341,-0.8402519226,2.256533861,7.822633104
15.11205086,3.716430187,-0.4174852371,1.994621038,4.238473823
15.13039462,0.2702159882,0.66102314,2.701009274,2.793818063
15.1487256,-2.308365107,1.094477654,0.986700058,2.738614212
15.16708217,-3.453140259,0.7377595901,-1.165364623,3.718405783
15.18542592,-2.5990839,1.460213661,-0.8020111918,3.08718043
15.20375691,-0.9507833719,2.955122471,-0.5715191364,3.156480946
15.22211347,0.02864551544,3.350116253,-1.935629845,3.869206943
15.24045722,0.07989633083,2.782565117,-1.109295964,2.996596334
15.25880097,-0.5302403569,1.547980309,-0.7721772194,1.809324606
15.27714477,-0.8686850071,-0.07526493073,-2.151373148,2.321354103
15.29548852,-0.8101529479,-1.138141632,-2.326112509,2.713395212
15.31381951,-0.1590339839,-1.267810822,-2.015340328,2.386259149
15.33217607,-0.07088285685,-2.138967514,-2.393072128,3.210451778
15.35051982,-1.963041306,-3.970663071,-3.495789766,5.642715878
15.36885081,-5.359829426,-3.298853874,-2.841912985,6.905554125
15.38720738,-9.183519363,-3.384412766,-0.9512379169,9.833419102
15.40555112,-12.31770325,-3.843635559,-2.498426437,13.14311539
15.42388212,-12.87174988,-2.296323776,-1.897254229,13.2119121
15.44223863,-9.799659729,-1.62469101,-3.74267149,10.61510912
15.46058243,-6.972279549,-1.57721138,-2.16782999,7.46992401
15.47891342,-3.413807392,-3.606959343,0.9276813269,5.052210334
15.49726993,-1.49589479,-5.178770065,3.45464921,6.402496527
15.51561368,-0.7580899596,-3.820799828,3.307103157,5.109808509
15.53394467,1.624696732,-5.597860336,2.010513306,6.165861137
15.55230123,3.583190203,-10.75803852,2.869311571,11.69647783
15.57064498,3.277460098,-14.62971115,0.7506582737,15.01111858
15.58897597,3.202398062,-14.09142494,-0.9711028337,14.4833232
15.60733253,4.775963783,-8.721219063,1.411909342,10.04305631
15.62567628,5.132941246,-3.604912758,4.411655426,7.668453914
15.64400727,4.17124176,0.5871601105,4.118608475,5.891260526
15.66236378,2.947538853,2.833102226,2.558561802,4.822933963
