Time (s),Linear Acceleration x (m/s^2),Linear Acceleration y (m/s^2),Linear Acceleration z (m/s^2),Absolute acceleration (m/s^2)
33.68641267,-0.3128944133,-0.304166311,-0.4562173069,0.6313115631
33.69639367,-0.5590642388,-0.5230971748,-0.1089611278,0.7733408076
33.70637467,-0.6117309872,-0.9808762729,0.05152155301,1.157146289
33.71635667,-0.5908774408,-1.472765688,0.2223759884,1.602381354
33.72633767,-0.2411820775,-1.977266963,0.3062466955,2.015326395
33.73631867,-0.01873330951,-1.976072377,0.03861618161,1.976538435
33.74630067,0.1358192348,-1.701273707,-0.5640388671,1.797475711
33.75628167,0.3149729157,-1.198989696,-1.205997584,1.729512764
33.76626267,0.6409728031,-0.640458979,-1.745427201,1.966608744
33.77624467,1.01691069,-0.1843223637,-1.984867759,2.237807432
33.78622567,1.078261723,0.2315953481,-2.180052495,2.443136023
33.79620667,1.026840358,0.53693578,-2.088289801,2.388232703
33.80618867,1.007358313,0.7167528641,-1.538438106,1.97365074
33.81616967,1.064510826,0.776940009,-0.6919969225,1.488515642
33.82615067,1.031269112,0.5982245404,0.3146585548,1.233044439
33.83613267,0.8586851802,0.3480707145,1.213498392,1.526784794
33.84611367,0.5022463692,0.2372180307,2.103257504,2.175365702
33.85609467,0.1145697588,-0.08062257886,2.796496375,2.800003251
33.86607667,-0.1558291742,-0.2359480155,3.230995953,3.243345348
33.87605767,-0.1951631746,-0.3641634214,3.307292762,3.333000011
33.88603867,-0.06508236073,-0.3265740108,3.08393731,3.101863251
33.89602067,0.1576423958,-0.2325162846,2.540177829,2.555663975
33.90600167,0.3507698623,-0.007800770402,1.74728837,1.782166377
33.91598267,0.4906238586,0.2931893331,0.8845971894,1.053178021
33.92596467,0.6081756974,0.4058148926,0.2416514261,0.7700381924
33.93594567,0.7775852492,0.5433571923,-0.06233833551,0.9506639397
33.94592667,0.9737655471,0.7805559272,-0.003335215263,1.247997604
33.95590867,0.9995243593,1.178613904,0.283842632,1.571224465
33.96588967,0.8589510092,1.447641372,0.7953335953,1.861724444
33.97587067,0.6026547564,1.585860195,1.37037451,2.18084195
33.98585267,0.4168320702,1.495007912,1.892204593,2.447291534
33.99583367,0.2391438112,1.46547538,2.297628307,2.735672438
34.00581467,-0.1360124487,1.467818944,2.497956254,2.900478803
34.01579667,-0.3389858955,1.286261728,2.516735172,2.846636014
34.02577767,-0.4722185048,1.13434288,2.37395786,2.673088103
34.03575867,-0.4589970732,0.9068189478,2.147139688,2.375543676
34.04574067,-0.3560423698,0.7590147847,1.889203802,2.066872183
34.05572167,-0.1999834,0.5934900498,1.434768727,1.565498355
34.06570267,-0.1637483507,0.4403766149,0.9907218146,1.096482922
34.07568467,-0.1577413599,0.3206227148,0.538357896,0.6461505134
34.08566567,-0.1945517752,0.2945955884,0.1928120823,0.4022604294
34.09564667,-0.2466010576,0.3206309009,-0.01849123478,0.4049175002
34.10562867,-0.3827658994,0.3458850253,-0.03179606237,0.516872493
34.11560967,-0.4700956732,0.2881689137,0.145097487,0.5701618591
34.12559067,-0.5059398361,0.3149041378,0.3793346802,0.7064237633
34.13557267,-0.4275732592,0.2690625519,0.6941826117,0.8585470559
34.14555367,-0.1285450427,0.2423635805,1.082866844,1.117078571
34.15553467,0.3493247961,0.1049715543,1.593996595,1.635197843
34.16551667,0.6622480434,-0.001772875786,2.071351587,2.174643191
34.17549767,0.5416134064,0.1764368087,2.237354039,2.308728682
34.18547867,0.05923390254,0.307868768,2.195576999,2.217848099
34.19546067,-0.5884186135,0.2920842093,1.900987111,2.011293526
34.20544167,-1.090578078,0.04633275211,1.512887528,1.86556585
34.21542267,-1.182189622,-0.2464817744,1.209874361,1.709421404
34.22540467,-0.8792541499,-0.4247756588,1.071964271,1.450044696
34.23538567,-0.5582832335,-0.5936245358,1.153771496,1.412536344
34.24536667,-0.3869288246,-0.7996897709,1.217007964,1.50676011
34.25534867,-0.2957907593,-1.01892352,1.210144429,1.609393318
34.26532967,-0.1200548856,-1.184705533,1.2338736,1.71475492
34.27531067,0.1267652965,-1.365252349,1.279031646,1.875074764
34.28529267,0.2712894639,-1.666959321,1.298591752,2.13042059
34.29527367,0.4867060049,-2.100909262,1.382322711,2.561546123
34.30525467,0.8258184195,-2.303822263,1.312878839,2.777269149
34.31523667,1.069079986,-2.276135697,1.101467056,2.745351599
34.32521767,1.093658099,-1.891781255,0.8315595082,2.338036691
34.33519867,0.8602333036,-1.250737554,0.6112421966,1.636448224
34.34518067,0.5749872668,-0.6813000262,0.5166483537,1.030390996
34.35516167,0.2357863399,-0.2834940648,0.4347287893,0.5700466675
34.36514267,-0.05990508981,0.04299457669,0.2418080219,0.2528008561
34.37512467,-0.3511574596,0.3226376653,-0.011474576,0.4770097383
34.38510567,-0.6611131719,0.5136966062,-0.3042774812,0.8908084053
34.39508667,-0.8183669472,0.7521741271,-0.3210004449,1.156949292
34.40506867,-0.784918754,0.6986107081,-0.04159822505,1.051610567
34.41504967,-0.6146242261,0.3292964745,0.5229235125,0.871577941
34.42503067,-0.3001983905,-0.01232768476,1.043062581,1.085472521
34.43501267,-0.2575174438,-0.2253932065,1.353295963,1.395896592
34.44499367,-0.2274270874,-0.5461053836,1.479193532,1.593100021
34.45497467,-0.3002267495,-0.8412014937,1.418513467,1.676286524
34.46495667,-0.3099321773,-1.034366602,1.174387536,1.595355229
34.47493767,-0.2598192003,-1.055017798,0.7904429841,1.343640086
34.48491867,-0.2341221493,-0.9757114273,0.3045113333,1.048595786
34.49490067,-0.2073269912,-0.8347578621,-0.1225295369,0.8688030024
34.50488167,-0.1643418431,-0.7729691648,-0.4853656769,0.927399273
34.51486288,-0.1075971734,-0.6048675621,-0.7860271668,0.9976375225
34.52484487,0.02260511644,-0.4712861663,-0.9214861035,1.035257592
34.53482588,0.1171115434,-0.4101962113,-0.8460640383,0.9475232991
34.54480687,0.2056429931,-0.2146407616,-0.5494254692,0.624682354
34.55478888,0.1956750984,0.04362139821,-0.1171150152,0.2321798813
34.56476987,0.21646195,0.2833917385,0.2780269547,0.4521787709
34.57475087,0.4133108769,0.4202440667,0.5904227101,0.8342840843
34.58473288,0.5927875069,0.5401798153,0.951498692,1.244403882
34.59471387,0.6609509117,0.722240476,1.227358486,1.569998811
34.60469488,0.6798958904,0.848706395,1.416022553,1.785407751
34.61467687,0.881463228,0.7971152419,1.50512725,1.917753417
34.62465787,1.329706833,0.6589730179,1.35493903,2.009533646
34.63463888,1.588503575,0.5924287802,1.318350809,2.147641572
34.64462087,1.493629723,0.7739228457,1.292880192,2.121656313
34.65460188,1.243209995,0.9950546014,1.348122346,2.086417651
34.66458287,0.9778314815,1.129357544,1.403497818,2.049733883
34.67456488,0.8038154201,1.185515957,1.357363286,1.973322681
34.68454588,0.7379417849,1.103788254,1.234039661,1.812666674
34.69452687,0.687058218,0.9648268354,1.076507558,1.600565006
34.70450888,0.544172148,0.8937229389,0.9965188173,1.444961512
34.71448987,0.3322350658,0.8235750622,0.9975210301,1.335553903
34.72447088,0.1958418171,0.6478188694,1.04024415,1.241020224
34.73445287,0.2867768379,0.3524327374,0.9885677735,1.087987147
34.74443387,0.4269984779,0.07133486152,0.8276078868,0.933997418
34.75441488,0.3521278051,-0.003667373657,0.6106200528,0.7048860118
34.76439687,0.06815061405,-0.0131638366,0.4256797115,0.4313015297
34.77437788,-0.2089080052,-0.118332442,0.3379970948,0.4145927611
34.78435887,-0.3912535715,-0.2901441032,0.2912474728,0.5675280154
34.79434087,-0.4196531325,-0.4651360649,0.2812744983,0.6867136622
34.80432188,-0.4229232609,-0.5613443971,0.317657007,0.7712830809
34.81430287,-0.522887479,-0.6210269272,0.4020300265,0.9059326146
34.82428488,-0.6329631409,-0.6446058244,0.4890494227,1.027291752
34.83426587,-0.7419943439,-0.6420979536,0.5691995831,1.134386862
34.84424687,-0.8775366765,-0.7067687434,0.6613762236,1.306526381
34.85422888,-0.8705279115,-0.7633189201,0.7153834462,1.360973216
34.86420987,-0.7237128049,-0.6795037615,0.7195642054,1.226074317
34.87419088,-0.5660358375,-0.6765538412,0.8706714606,1.239431507
34.88417287,-0.4526776949,-0.7712266946,0.8685489213,1.246629431
34.89415388,-0.3036494903,-0.9834250742,0.7661419559,1.283082767
34.90413487,-0.06540424995,-1.491110743,0.7121323943,1.653729576
34.91411687,0.2261907667,-2.079644108,0.6552506804,2.192130318
34.92409788,0.4034330294,-2.309792855,0.460954721,2.389640244
34.93407887,0.5190196189,-2.182901843,0.05104619265,2.24433677
34.94406088,0.5139810001,-1.731186308,-0.4522423697,1.861640583
34.95404187,0.07494266666,-1.062554274,-0.8937235236,1.390460257
34.96402287,-0.4193813831,-0.3210928309,-1.240950485,1.348680635
34.97400488,-0.7570331633,0.5246133578,-1.451035681,1.718668942
34.98398587,-0.9464805385,1.272067028,-1.435101433,2.13857337
34.99396688,-1.058148982,1.867322352,-1.098048627,2.410867649
35.00394887,-1.182447046,2.176120242,-0.5097088051,2.528533842
45.01522304,-0.7338547274,-1.93217499,-1.956257333,2.845836556
45.02520404,-0.8113223679,-1.334095461,-2.330615959,2.805320914
45.03518604,-0.6847148001,-0.5599855042,-2.620774096,2.766021508
45.04516704,-0.5224192632,-0.06015381575,-2.653170009,2.704783072
45.05514804,-0.3277007693,0.1386409914,-2.418532355,2.444567011
45.06513004,-0.07959343236,0.1380919379,-1.933999321,1.940556073
45.07511104,0.2259350241,0.002510794401,-1.341746542,1.360638351
45.08509204,0.5305538365,-0.2012518072,-0.7983683002,0.9794802735
45.09507404,0.7478837326,-0.3763636369,-0.4199902976,0.9366811169
45.10505504,0.8147493479,-0.4033169621,-0.3181142592,0.963160295
45.11503604,0.8691535234,-0.2538100898,-0.3282451451,0.9631159246
45.12501804,0.8449226618,-0.1342503172,-0.4211188102,0.9535504729
45.13499904,0.7777656358,-0.1421651083,-0.657542789,1.0283447
45.14498004,0.8175793272,-0.1242258507,-1.02767154,1.319081806
45.15496204,0.8161867397,-0.1168566048,-1.363820951,1.59368248
45.16494304,0.7900512207,-0.1048592877,-1.605875798,1.79276699
45.17492404,0.8131323005,-0.02959392786,-1.801019019,1.976291843
45.18490604,0.9089004835,0.08682881355,-1.966599888,2.168214576
45.19488704,1.034789428,0.2110757142,-2.020483734,2.279845749
45.20486804,1.132733434,0.3195462424,-1.931221309,2.261594698
45.21485004,1.096504085,0.4416770357,-1.744139645,2.106993809
45.22483104,0.9761590317,0.5874218094,-1.550384552,1.923965462
45.23481204,0.9418296631,0.7658647978,-1.407223663,1.858459158
45.24479404,1.007889605,0.9318578947,-1.258869277,1.862512402
45.25477504,1.090033557,1.085150839,-1.106517735,1.894757767
45.26475604,1.200553534,1.225248372,-1.007707976,1.989481773
45.27473804,1.336584036,1.299620862,-0.8954987383,2.068185016
45.28471904,1.463859794,1.25561998,-0.7709062672,2.076960159
45.29470004,1.540699809,1.170223734,-0.6183114803,2.031129877
45.30468204,1.502070471,1.07733779,-0.4825578439,1.910427828
45.31466304,1.314741469,1.016627319,-0.3464077663,1.697667393
45.32464404,1.043518079,0.987885915,-0.2346183586,1.455985692
45.33462604,0.7622780427,0.9285951483,-0.1820238233,1.215108817
45.34460704,0.4805853223,0.8338509589,-0.2455339408,0.9932555511
45.35458804,0.2610102781,0.6846691918,-0.3893093723,0.8297349305
45.36457004,0.08504234299,0.4525300527,-0.5959096277,0.7530763129
45.37455104,-0.05577673629,0.1996677965,-0.8372242177,0.8625095152
45.38453204,-0.1408948007,-0.04554805577,-1.148563308,1.158068928
45.39451404,-0.2362079607,-0.1883610356,-1.513233683,1.543097618
45.40449504,-0.3776000671,-0.2318520409,-1.898802592,1.949817546
45.41447604,-0.513050635,-0.239777357,-2.20170415,2.273370911
45.42445804,-0.6940286838,-0.2373981249,-2.367423597,2.478452778
45.43443904,-0.8813087153,-0.1760760355,-2.372165689,2.536706108
45.44442004,-0.9934024706,-0.1681805402,-2.17788961,2.399653374
45.45440204,-1.064424068,-0.2035439157,-1.857956867,2.150914326
45.46438304,-1.067279409,-0.2481049615,-1.502011707,1.859215043
45.47436404,-0.9807148898,-0.3352781761,-1.130615864,1.53378792
45.48434604,-0.8773615524,-0.4907673347,-0.8133593917,1.293123881
45.49432704,-0.7710879694,-0.6894451976,-0.6458243841,1.219426288
45.50430804,-0.6772121646,-0.8982288033,-0.6514038704,1.299907036
45.51429004,-0.6440668572,-1.151200987,-0.8032460475,1.544438423
45.52427113,-0.5613359186,-1.491597816,-1.027224228,1.896088519
45.53425212,-0.4028450918,-1.957306908,-1.278283787,2.37220234
45.54423413,-0.209956411,-2.424908744,-1.530960102,2.875430914
45.55421512,-0.02702312641,-2.781674268,-1.809742919,3.318676154
45.56419613,0.0822999623,-2.84961599,-2.165943164,3.580278531
45.57417812,0.1459578682,-2.64825367,-2.607122601,3.719091214
45.58415912,0.124187588,-2.183723962,-2.998684321,3.71162775
45.59414013,-0.05826830797,-1.519489619,-3.193650956,3.537181127
45.60412212,-0.3344147981,-0.8073396832,-3.146357507,3.265454973
45.61410313,-0.5579681782,-0.1171179754,-2.684529796,2.744402546
45.62408412,-0.6143584701,0.4651267093,-1.963725396,2.109501509
45.63406612,-0.652785202,0.850829519,-1.155796899,1.576675573
45.64404713,-0.6458937467,1.258332503,-0.4566248578,1.486299324
45.65402812,-0.6399309754,1.621518854,0.04365534861,1.743772014
45.66401013,-0.6510801539,1.797608923,0.3394408089,1.941783528
45.67399112,-0.5457202714,1.685183339,0.5428864914,1.852668141
45.68397212,-0.2901004318,1.385035234,0.6654113871,1.563730531
45.69395313,0.1218679975,0.9773954254,0.6258549732,1.166982465
45.70393512,0.5493006312,0.4110463965,0.4501514053,0.8205648123
45.71391613,0.7858335509,-0.1189598483,0.1202327871,0.8038294212
45.72389712,0.8064949067,-0.5502107137,-0.3704673046,1.044227891
45.73387913,0.7079830639,-0.826410377,-0.9727463043,1.45959909
45.74386012,0.6371531095,-0.916428262,-1.594566114,1.946393058
45.75384112,0.6780313595,-0.9951949346,-2.114167823,2.433073173
45.76382313,0.7595278048,-0.946492306,-2.490864167,2.770764239
45.77380412,0.8520455206,-0.7403808779,-2.735869519,2.959582308
45.78378513,0.9122646059,-0.5576659137,-2.823782991,3.019431795
45.79376712,0.9603217019,-0.403201772,-2.656655535,2.853525551
45.80374812,0.9954663185,-0.21306903,-2.26682576,2.484924673
45.81372913,1.02718951,-0.003297829628,-1.73142312,2.013195268
45.82371112,1.061678288,0.2376209038,-1.173827373,1.600467176
45.83369213,1.039256994,0.4435773808,-0.6717801744,1.314573921
45.84367312,0.9637472932,0.6087705785,-0.3711251163,1.198809541
45.85365512,0.9693391317,0.7715857136,-0.30728697,1.276474891
45.86363613,1.072467497,0.8196200055,-0.4152698404,1.412236711
45.87361712,1.205613203,0.7313802588,-0.6129308724,1.53756448
45.88359913,1.243881109,0.6463763613,-0.9105214047,1.671553721
45.89358012,1.181880012,0.5651468414,-1.209424637,1.782958011
45.90356113,1.034019935,0.5249092269,-1.397278719,1.815795897
45.91354312,0.8187213615,0.5271586508,-1.447910929,1.744891678
45.92352412,0.5516719329,0.5476847166,-1.375977897,1.58038465
45.93350513,0.2994058004,0.622707417,-1.215212211,1.397908823
45.94348712,0.1095945822,0.7054618907,-1.001171374,1.22964693
45.95346813,-0.03712843068,0.7415631849,-0.8194890279,1.105828533
45.96344912,-0.1183249868,0.7815786052,-0.7254687238,1.072926273
45.97343112,-0.1479439116,0.7912744582,-0.6622597378,1.04239658
45.98341213,-0.09229274422,0.7623541296,-0.6031356168,0.9764601076
45.99339312,-0.01111482605,0.7116423976,-0.5469122994,0.8975920592
46.00337513,0.07050722469,0.6415851527,-0.5372684866,0.8397977159
46.01335612,0.1292035854,0.5420696354,-0.5735188848,0.7996605325
46.02333712,0.1039558929,0.4657582086,-0.6144517332,0.7780028721
46.03331913,-0.009402176589,0.4199990684,-0.6687992638,0.789797489
46.04330012,-0.09718817934,0.3866518128,-0.7310265023,0.8326733534
46.05328113,-0.1487525449,0.3828183782,-0.78294393,0.8841257987
46.06326312,-0.2440740372,0.3313137639,-0.8135745692,0.9117261242
46.07324413,-0.3454764145,0.2195524228,-0.839720394,0.9341774775
46.08322513,-0.3792012541,0.1143019563,-0.8937065667,0.9775325855
46.09320712,-0.3948440543,0.05275884211,-0.9328080672,1.014305779
46.10318813,-0.4260214081,0.06541572511,-0.9397966594,1.033920315
46.11316912,-0.4245981593,0.07487301171,-0.9389131451,1.033173489
46.12315113,-0.3717811739,-0.005102280378,-0.9699636143,1.038786161
46.13313212,-0.2578885593,-0.161024133,-1.069106664,1.111496442
46.14311312,-0.06973827928,-0.3772255164,-1.212817191,1.272040903
46.15309513,0.1295994419,-0.6668176425,-1.357106593,1.517623171
46.16307612,0.3974378791,-1.082199749,-1.558954232,1.938930494
46.17305713,0.8479541507,-1.499475185,-1.847088647,2.525705553
46.18303912,1.463114859,-1.845043876,-2.037374586,3.113805902
46.19302012,1.925843333,-2.188627437,-1.984145628,3.526442467
46.20300113,2.044470767,-2.396532791,-1.842679262,3.649479003
46.21298312,1.695585243,-2.188112297,-1.626435778,3.210628923
46.22296413,0.8903093344,-1.572595201,-1.345786968,2.253186398
46.23294512,-0.05174349139,-0.9130327839,-1.059759305,1.399784283
46.24292713,-0.667583043,-0.1284346765,-0.840867033,1.081304745
46.25290813,-1.17556078,0.4603290689,-0.6515330207,1.420683383
46.26288912,-1.412054341,0.7984355432,-0.5534839851,1.713984043
46.27287113,-1.353986227,0.8847989184,-0.5602205622,1.711722789
46.28285212,-1.080457864,0.7226790172,-0.6889177787,1.471143046
46.29283313,-0.7601003203,0.4127654779,-0.8686658657,1.22585
46.30281512,-0.4549431986,0.1497156179,-0.9504999876,1.064348771
46.31279612,-0.1483625722,-0.03682401001,-0.8799545002,0.8931334631
46.32277713,-0.0703665626,-0.1836715686,-0.7187245452,0.7451521121
46.33275912,-0.2006621155,-0.2890278697,-0.7059998345,0.7888207404
46.34274013,-0.2386143458,-0.2461794734,-1.005717584,1.062548351
46.35272112,-0.2664596638,-0.1708918941,-1.468682578,1.502409167
46.36270312,-0.2809794697,-0.1293532741,-1.911045492,1.935917509
46.37268413,-0.1162373847,-0.06256462276,-2.25776316,2.261618878
46.38266512,0.1352417126,-0.03505464256,-2.483331783,2.487258711
46.39264713,0.4674503928,0.01938235044,-2.659001437,2.699847068
46.40262812,0.7677201194,0.03447635293,-2.724530599,2.83083906
46.41260913,0.9543375152,0.07975075901,-2.71608605,2.879972865
46.42259113,1.002313335,0.1672806537,-2.613220078,2.803842723
46.43257212,1.000313587,0.2961959714,-2.390401985,2.608137453
46.44255313,0.868190487,0.465854103,-2.068505162,2.291176198
46.45253412,0.6301386434,0.5539289582,-1.678381273,1.876399663
46.46251613,0.5712393478,0.6378721708,-1.373336125,1.618408913
46.47249712,0.6111305147,0.685076158,-1.156427228,1.47652761
46.48247812,0.6747330183,0.5810214472,-1.054015585,1.379782382
46.49246013,0.6841794875,0.498471626,-1.111507748,1.397148885
46.50244112,0.7136047232,0.5279415929,-1.268389129,1.548148898
46.51242313,0.7288527998,0.5535880655,-1.353536868,1.633936414
46.52240425,0.6296071315,0.4984371275,-1.351872751,1.572388198
46.53238525,0.487834956,0.4873204011,-1.414105836,1.573263943
46.54236625,0.2327203524,0.3849070036,-1.515971349,1.581291022
46.55234825,0.1107468492,0.2748957342,-1.68331106,1.709201174
46.56232925,0.4627472215,0.07682715118,-1.757044449,1.81858258
46.57231025,1.075974804,-0.1798241007,-1.641812786,1.971194488
46.58229225,1.496237581,-0.2343084562,-1.427693011,2.081330028
46.59227325,1.206394317,-0.03025349379,-1.19157835,1.695924965
46.60225425,0.6813929969,0.1719034624,-1.229827327,1.416447129
46.61223625,0.2218468702,0.3599586886,-1.489206889,1.54807088
46.62221725,-0.03371005705,0.2927402669,-1.539835591,1.567777688
46.63219825,-0.1444101102,0.1567112267,-1.392252452,1.408467103
46.64218025,-0.3783958367,0.1160760015,-1.083520635,1.153548445
46.65216125,-0.6336218297,0.08878295302,-0.7023792386,0.9501029579
46.66214225,-0.6260002765,0.1004253441,-0.318303709,0.7094214876
46.67212425,-0.427532621,0.03370218158,0.04758464098,0.4314907614
46.68210525,-0.3479926541,-0.157055043,0.3392145216,0.5107168154
46.69208625,-0.3059701588,-0.3923265356,0.4308438993,0.6581521968
46.70206825,-0.1537218012,-0.4549145472,0.3288824916,0.5820148887
46.71204925,-0.07949231207,-0.6866747868,0.5281363052,0.8699248516
46.72203025,-0.09456615994,-1.028442203,0.8479117584,1.336259882
46.73201225,0.04283026993,-1.473738665,0.8777986318,1.715887678
46.74199325,0.1166434921,-1.801796699,0.6032367736,1.903673201
46.75197425,-0.1032223414,-1.859887033,0.05833414396,1.863662388
46.76195625,-0.2806374076,-1.588704865,-0.5554720384,1.706250183
46.77193725,-0.3240331033,-1.33313184,-1.04224514,1.722937284
46.78191825,-0.2091511032,-0.9968479425,-1.21098292,1.582381002
46.79190025,-0.2399141636,-0.5641341037,-1.124123701,1.280414069
46.80188125,-0.3385984809,-0.1993725121,-0.7279333252,0.8272153624
46.81186225,-0.3930872583,0.2449983358,-0.105167436,0.4749757539
46.82184425,-0.8340909871,0.7504152846,0.8017175853,1.378978593
46.83182525,-1.614070964,1.07962522,2.154173888,2.900220825
46.84180625,-1.55981465,1.308247844,3.330298047,3.903257517
46.85178825,-0.9275370947,0.9747437131,3.858706248,4.086571213
46.86176925,0.02954715014,0.3446313822,3.898961989,3.914274954
46.87175025,0.6572266739,-0.03761689246,3.234829388,3.301133608
46.88173225,0.7078717475,-0.6378786027,2.147485843,2.34939715
46.89171325,0.6047790133,-1.187006412,1.058841292,1.701730519
46.90169425,0.5729836453,-1.557191881,0.2138876037,1.672992743
46.91167625,0.680221288,-1.793449214,-0.2728100689,1.937417461
46.92165725,0.8612887991,-1.780568967,-0.4462945819,2.027664444
46.93163825,1.042409666,-1.536602665,-0.1681565483,1.864414731
46.94162025,1.14277281,-1.165491582,0.2678504241,1.654099203
46.95160125,1.215742627,-0.6692360508,0.5385952199,1.488620783
46.96158225,1.273901592,-0.2576517105,0.6064603436,1.43422586
46.97156425,1.416055005,0.1200205332,0.642120173,1.559466262
46.98154525,1.425716945,0.3901776838,0.7513192642,1.65812788
46.99152625,1.292075907,0.6747564071,0.7203629351,1.625939457
47.00150825,1.044251612,0.8916489315,0.7042316365,1.543191966
47.01148925,0.7850163294,1.038155013,0.7662764418,1.510362888
47.02147025,0.5765557093,1.086102181,0.8955864465,1.521219746
47.03145225,0.4718914993,1.121245117,0.9924537599,1.569979829
47.04143325,0.4704611973,1.123612069,1.091649435,1.63570667
47.05141425,0.473242133,1.149957869,1.15142552,1.694739492
47.06139625,0.4506313886,1.152025445,1.09875614,1.654538102
47.07137725,0.4790118731,1.162603058,0.9415747976,1.570879163
47.08135825,0.4470794975,1.142719601,0.6868677449,1.406227386
47.09134025,0.4604331493,1.207936521,0.4983324623,1.385440206
47.10132125,0.4458947054,1.224491158,0.388982513,1.359966205
47.11130225,0.3446581332,1.150479441,0.3307372284,1.245704334
47.12128425,0.1952003045,1.048777649,0.2704594699,1.100538978
47.13126525,-0.09287191093,0.9989722359,0.1607621777,1.016078342
47.14124625,-0.3971925884,0.9205493796,0.1147539461,1.00912912
47.15122825,-0.7552615301,0.8022993833,0.0574968775,1.103363118
47.16120925,-1.117718661,0.6197469717,-0.01902567029,1.278179678
47.17119025,-1.363064029,0.4873110455,-0.1089581676,1.451649918
47.18117225,-1.649035559,0.2971905828,-0.2740496421,1.69786446
47.19115325,-1.911802121,0.1060433489,-0.5094585443,1.981358259
47.20113425,-1.914547974,0.213778882,-0.8116683769,2.090454713
47.21111625,-1.666170532,0.192753464,-1.075766058,1.992624087
47.22109725,-1.111957399,0.06781483769,-0.9197260916,1.44462597
47.23107825,-0.5235691912,0.005532050729,-0.3196789376,0.6134736545
47.24106025,0.0896560885,-0.1242205882,0.4660394963,0.4905729108
47.25104125,0.6727648455,-0.2352779245,1.133585811,1.33902391
47.26102225,0.5273023461,-0.4678649604,1.719218227,1.858132583
47.27100425,-0.29108799,-0.3924750549,2.043874351,2.10147359
47.28098525,-0.849320645,-0.4333745742,1.995171722,2.211304882
47.29096625,-1.131231722,-0.7766844857,1.504182193,2.036047168
47.30094725,-1.276160956,-0.9324817926,0.8995648921,1.81860553
47.31092925,-1.362334881,-1.104230888,0.5711525897,1.844314904
47.32091025,-1.181193257,-1.213186736,0.5798263128,1.789759235
47.33089125,-0.634718475,-1.220237893,0.6753686106,1.532308983
47.34087325,-0.06143260181,-1.452399836,0.9084257627,1.714198534
47.35085425,0.1508869614,-1.506619897,1.063277502,1.850197134
47.36083525,0.1910270736,-1.700746288,1.117098856,2.043756133
47.37081725,0.3741780938,-1.944738318,0.9963573611,2.216922272
47.38079825,0.6586901589,-1.985702156,0.7449832213,2.220784947
47.39077925,0.8052308849,-1.68297543,0.4800143051,1.92645187
47.40076125,0.861657393,-1.317564797,0.2311685014,1.591184884
47.41074225,0.8645443095,-0.9173848665,0.03070025761,1.260941855
47.42072325,0.7931496602,-0.5552773261,-0.1385544527,0.9780678038
47.43070525,0.5918449357,-0.03623461068,-0.2043344593,0.6271729795
47.44068625,0.2712008786,0.5242835748,-0.08432854414,0.596267127
47.45066725,-0.02096753061,1.014256858,0.1425902009,1.024445497
47.46064925,-0.2454715218,1.394880191,0.4326389579,1.48091981
47.47063025,-0.4751168235,1.526834307,0.7586107421,1.769872666
47.48061125,-0.5501807468,1.464037549,1.026002744,1.870504326
47.49059325,-0.4661973345,1.309719003,1.223176703,1.85171949
47.50057425,-0.3231732702,1.028441033,1.377899877,1.749497068
47.51055525,-0.1117139786,0.6297077036,1.42001971,1.557391339
47.52053725,0.1602752508,0.274400475,1.231077461,1.271430491
47.53051813,0.3241664198,-0.06446847618,0.9012804651,0.9599721501
47.54049912,0.422787167,-0.4445801783,0.528208226,0.8095705364
47.55048112,0.609219937,-0.7299406743,0.05146485329,0.9521612
47.56046213,0.9445133159,-1.018160459,-0.5674605846,1.500255858
47.57044312,1.35621884,-1.244779826,-1.272898502,2.238096726
47.58042513,1.583712951,-1.229636123,-2.011921656,2.840419063
47.59040612,1.66613194,-1.00440313,-2.588809122,3.238325796
47.60038712,1.602438659,-0.675535841,-2.867795568,3.353864897
47.61036913,1.480523189,-0.3375036263,-2.873548059,3.250097854
47.62035012,1.350068007,0.04079134583,-2.682770369,3.003598577
47.63033113,1.389073175,0.4245739299,-2.202874762,2.638644449
47.64031312,1.489173706,0.7566109943,-1.421398484,2.193278864
47.65029413,1.468444304,1.038071398,-0.6343445456,1.906912138
47.66027513,1.381369468,1.339093661,0.02341808955,1.924032704
47.67025712,1.226271781,1.504355856,0.5518666452,2.017767532
47.68023813,1.154362138,1.495423064,1.035551248,2.154346414
47.69021912,1.164693876,1.568045483,1.370830593,2.386305717
47.70020113,1.028720092,1.663902982,1.569544709,2.508048794
47.71018212,0.8328478691,1.672451026,1.632342635,2.480981759
47.72016312,0.749984491,1.609872955,1.4389834,2.285791087
47.73014513,0.7507370277,1.392434301,1.064986131,1.907006771
47.74012612,0.6997574202,1.064672136,0.6419161052,1.426619602
47.75010713,0.5924688336,0.8002791703,0.1865098071,1.013040955
47.76008912,0.4423629141,0.6014171201,-0.2421823168,0.7848820132
47.77007012,0.2294160908,0.4654863131,-0.4955374932,0.7175420947
47.78005113,0.1081856225,0.3218102843,-0.7384752703,0.8127802365
47.79003312,0.1670425259,0.09617500305,-0.9296359527,0.9494081531
47.80001413,0.1076727486,-0.08950742304,-1.013648162,1.023272983
47.80999512,-0.1339269662,-0.1839054573,-1.090321532,1.113803705
47.81997713,-0.4175663343,-0.2452480119,-1.103595296,1.205168374
47.82995813,-0.6650362882,-0.2807213151,-0.9420875984,1.186847406
47.83993912,-0.7551418814,-0.4446901059,-0.7226246381,1.13585867
47.84992113,-0.753449551,-0.6436924893,-0.5025915011,1.111136564
47.85990212,-0.7275625386,-0.8588004434,-0.3434701617,1.176799559
47.86988313,-0.6708047857,-1.150853078,-0.2422232838,1.353925399
47.87986512,-0.5712169822,-1.403655108,-0.3227720781,1.549425157
47.88984612,-0.4477692497,-1.574617753,-0.4202136612,1.690117715
47.89982713,-0.3884304627,-1.769456919,-0.4163732465,1.858822932
47.90980912,-0.3294550802,-1.901696963,-0.4238306757,1.976012255
47.91979013,-0.1426451647,-2.01854012,-0.4939213228,2.082981068
47.92977112,0.03717630476,-2.085243402,-0.5935689873,2.168397165
47.93975312,0.07641901553,-2.042175735,-0.6989445841,2.159825254
47.94973413,-0.01107389554,-1.89714666,-0.6738178559,2.01328552
47.95971512,-0.1125552468,-1.89040482,-0.3862506207,1.932741217
47.96969713,-0.03911217168,-2.078781059,0.04700101577,2.079680155
47.97967812,0.2617574792,-2.120593913,0.3551387191,2.1660007
47.98965912,0.4692527971,-1.876380858,0.4383581561,1.983219904
47.99964113,0.4473866956,-1.376576067,0.3398004857,1.486802238
48.00962212,0.2936454159,-0.7357826275,0.184630512,0.8134446085
48.01960313,0.1251057105,-0.167773574,0.04626441278,0.2143357339
48.02958512,0.1406897096,0.2286027431,-0.01311771668,0.2687468754
48.03956613,0.2593604131,0.5778651202,-0.03517049052,0.6343759803
48.04954712,0.3423525761,0.9925362056,-0.04270696677,1.05078889
48.05952812,0.30746034,1.426137067,0.04842780948,1.459706836
48.06951013,0.2359035766,1.755324783,0.3215810734,1.800063882
48.07949112,0.06865486331,1.908826473,0.6650862819,2.022540916
48.08947213,-0.1307547786,1.88025113,1.000677284,2.133962547
48.09945412,-0.20664696,1.551420679,1.260325234,2.009484706
48.10943512,-0.1322724965,1.049981006,1.419131518,1.77027975
48.11941713,-0.1083623546,0.5347290409,1.498822635,1.595038194
48.12939812,-0.1201514377,-0.02940974057,1.216371714,1.222645266
48.13937913,-0.003439551517,-0.4239973944,0.6146809441,0.7467384308
48.14936012,0.06017705843,-0.6107942998,-0.02759951569,0.6143717835
48.15934212,0.03603368573,-0.5148736507,-0.5932463306,0.7863424899
48.16932313,0.01832086153,-0.2689982325,-1.097637568,1.130267196
48.17930412,0.1345635087,-0.01699317813,-1.524505945,1.530527518
48.18928613,0.3846235599,0.297360152,-1.770538654,1.836073383
48.19926712,0.5326790801,0.5875837773,-1.706482406,1.881776794
48.20924813,0.5440007515,0.8267992169,-1.350679919,1.674476039
48.21923012,0.5415619509,1.085323917,-0.8901847156,1.50454185
48.22921112,0.5109087999,1.304785708,-0.422303383,1.463500493
48.23919213,0.4635283729,1.476421952,0.03652346313,1.547906424
48.24917412,0.4062984574,1.557095987,0.4270356077,1.664928154
48.25915513,0.3685257366,1.603347462,0.6707224131,1.77662682
48.26913612,0.358609736,1.564090426,0.7678113359,1.778908106
48.27911812,0.4782901805,1.434837724,0.7313386705,1.679993167
48.28909913,0.5942909722,1.2982187,0.563386866,1.534913129
48.29908012,0.5489387251,1.138093284,0.3220160697,1.303949537
48.30906213,0.4354683159,0.9483482122,-2.576429397e-05,1.043550184
48.31904312,0.3264121161,0.7258867997,-0.3267757763,0.8603713869
48.32902412,0.2814932938,0.4695296627,-0.6762532213,0.8700660882
48.33900613,0.3133087251,0.2561121386,-0.9250230843,1.009665039
48.34898712,0.2947204996,0.1791738904,-1.009793093,1.067073356
48.35896813,0.1631373167,0.1970254397,-1.001436253,1.033589559
48.36895012,-0.000266340673,0.2150372028,-0.9068318117,0.9319790793
48.37893113,-0.1069659664,0.2121247047,-0.7740620095,0.8096978466
48.38891213,-0.1212784155,0.2164241624,-0.6295393038,0.6766591514
48.39889412,-0.2498663621,0.3222043866,-0.3223921188,0.5197937513
48.40887513,-0.5238762432,0.4695390183,0.05741494339,0.705839701
48.41885612,-0.8341626155,0.5598937029,0.3624642205,1.068030214
48.42883813,-1.118794841,0.5440009707,0.6209661162,1.390409245
48.43881912,-1.248322947,0.4008295566,0.7488295197,1.509874221
48.44880012,-1.18917434,0.2722194636,0.8081770045,1.463348598
48.45878213,-1.153849995,0.1899485546,0.8554733777,1.448890943
48.46876312,-1.19582701,0.1181342214,0.8691266263,1.483016866
48.47874413,-1.221902303,0.03934942245,0.8273096788,1.476155452
48.48872612,-1.101774985,-0.1107901186,0.6820519781,1.300529688
48.49870712,-0.8381154795,-0.3066309124,0.4745231484,1.010758276
48.50868813,-0.6713015067,-0.3591546965,0.2397381624,0.7981930815
48.51867012,-0.6882207175,-0.2639965242,0.05236238262,0.7389747898
48.528651,-0.7295342928,-0.187314384,0.04107961357,0.7543172393
48.538632,-0.7257151108,-0.1857648718,0.177622021,0.7698834925
48.548614,-0.6537160056,-0.3132417744,0.4662359262,0.8618822217
48.558595,-0.5200425162,-0.5446330547,0.8364857143,1.125512209
48.568576,-0.4413702761,-0.9385447705,1.201008739,1.586850969
48.578558,-0.3334403962,-1.469953762,1.36280412,2.032038787
48.588539,-0.1846444722,-1.877778928,1.235560521,2.255384022
48.59852,-0.1392294406,-2.041762921,0.9099787831,2.239696865
48.608502,-0.1903140787,-1.973637596,0.4711575276,2.038002509
48.618483,-0.2176412603,-1.765134072,0.06640390456,1.779740287
48.628464,-0.2531832683,-1.583121359,-0.2584311444,1.623934007
48.638446,-0.2710429307,-1.374315534,-0.5145970774,1.49231954
48.648427,-0.330601573,-1.136757195,-0.6080005002,1.330856464
48.658408,-0.3986190167,-0.8352104366,-0.5032341832,1.053431648
48.66839,-0.4468495557,-0.4568230784,-0.289588033,0.7015861168
48.678371,-0.5187313512,-0.0009016406536,0.005327982903,0.5187594964
48.688352,-0.6068117613,0.5076096547,0.3313780832,0.857729275
48.698334,-0.6187705598,0.8761163878,0.6458471882,1.252028562
48.708315,-0.5391402534,0.989664638,0.9420998776,1.468897712
48.718296,-0.3808398266,0.9401299506,1.239443657,1.601594168
48.728278,-0.229752525,0.6769935519,1.552631053,1.709318483
48.738259,-0.07384105124,0.338035723,1.737603042,1.771718088
48.74824,0.1272648679,0.03516866326,1.721812052,1.726867083
48.758222,0.2240033233,-0.3447974432,1.529549754,1.583851387
48.768203,0.2368777958,-0.7227544463,1.154740891,1.382718918
48.778184,0.1384608972,-1.003417289,0.6225296617,1.188932654
48.788166,0.03266071938,-1.15073204,0.0008712442685,1.151195774
48.798147,0.06688783474,-1.309962832,-0.6459214479,1.462084512
48.808128,0.3087703355,-1.49698544,-1.245715381,1.97182944
48.81811,0.5376779379,-1.461038513,-1.769096146,2.356572145
48.828091,0.7103216578,-1.03676396,-2.280346277,2.603731075
48.838072,0.7657361591,-0.6898200041,-2.572592454,2.771359853
48.848054,0.8200956765,-0.3897502524,-2.694806278,2.843667184
48.858035,0.9794035055,-0.1160531974,-2.611460066,2.791491223
48.868016,1.099182987,0.2569196391,-2.275471453,2.540075053
48.877998,1.064912749,0.6258824551,-1.616479724,2.034397874
48.887979,1.048312284,0.9744759107,-0.8571562064,1.668316129
48.89796,1.113488858,1.272928907,-0.2594129101,1.710994009
48.907942,1.109022974,1.524316496,0.1420487487,1.890410163
48.917923,1.05166442,1.619569978,0.4904293656,1.992366916
48.927904,1.083230906,1.703140138,0.7883058268,2.166910612
48.937886,1.208755423,1.689227858,0.9730445123,2.293773322
48.947867,1.361408975,1.64815643,1.077635998,2.39398274
48.957848,1.436077334,1.621021841,1.085419811,2.422429789
48.96783,1.417132355,1.533691921,0.9477196366,2.293174117
48.977811,1.289171741,1.401001056,0.6581280953,2.014423076
48.987792,1.047013033,1.188068267,0.251795121,1.603478494
48.997774,0.8056806088,0.9938693708,-0.2261925391,1.299253876
49.007755,0.6176505256,0.8345257276,-0.6413670516,1.220359397
49.017736,0.4936887498,0.6848668277,-0.9401743895,1.26360557
49.027718,0.4846969016,0.4972273386,-1.202355938,1.388461708
49.037699,0.547386874,0.3724483413,-1.542805392,1.67886826
49.04768,0.5418288032,0.3019490469,-1.84546429,1.94691811
49.057662,0.4560386744,0.2568787086,-2.033718907,2.099992984
49.067643,0.3313189533,0.2376419538,-2.061300223,2.101238815
49.077624,0.2264086486,0.1580707043,-1.959353433,1.978715012
49.087605,0.2300191581,0.03288591027,-1.746168775,1.761560582
49.097587,0.2760313366,-0.1004920024,-1.431032356,1.460871502
49.107568,0.2246800654,-0.1961419255,-1.079783168,1.120216264
49.11755,0.1156194071,-0.3098498046,-0.7616419387,0.8303452243
49.127531,0.06929929957,-0.4984575927,-0.5234995363,0.7261639823
49.137512,-0.00193118915,-0.8045125544,-0.3583523854,0.8807159655
49.147493,-0.06113432072,-1.118226784,-0.3538852223,1.174480011
49.157475,-0.03951241359,-1.306759728,-0.4322028653,1.376946453
49.167456,-0.0261159309,-1.485479289,-0.5361669077,1.579495398
49.177437,0.004128426611,-1.565942824,-0.6939838064,1.712836097
49.187419,0.02554304995,-1.584680226,-0.8278499615,1.788071427
49.1974,0.04882637031,-1.568823162,-0.9834782839,1.852247193
49.207381,0.0652004014,-1.438781671,-1.042933504,1.778216545
49.217363,0.04233559549,-1.287000232,-0.9477389324,1.59886553
49.227344,-0.002619771883,-1.117883552,-0.8057872474,1.378028878
49.237325,-0.1229879221,-0.9726065558,-0.6320419121,1.166433247
49.247307,-0.1931732941,-0.9660237604,-0.3555551505,1.047347742
49.257288,-0.1236481458,-1.197543679,0.004881255627,1.203920078
49.267269,0.09020799257,-1.417293738,0.2361561032,1.439662713
49.277251,0.3413122834,-1.507301683,0.3287263344,1.580035899
49.287232,0.5345126939,-1.381790029,0.3558861029,1.523713367
49.297213,0.4162754884,-1.191994087,0.3001756229,1.297782952
49.307195,0.1782234254,-0.8507575983,0.1102065665,0.876183524
49.317176,-0.07406748466,-0.5195865065,-0.1228149541,0.5390172937
49.327157,-0.2248329701,-0.2395843989,-0.3032284542,0.4470995908
49.337139,-0.2901359902,0.08591664791,-0.4639227311,0.5538816332
49.34712,-0.363658222,0.5045924914,-0.5942957962,0.8602606454
49.357101,-0.4669582766,1.003509675,-0.6670813519,1.292315453
49.367083,-0.6419268494,1.489571756,-0.616426338,1.735187461
49.377064,-0.8705865298,1.831291224,-0.4759996799,2.082816398
49.387045,-0.9151655558,1.971516227,-0.2362415457,2.186370118
49.397027,-0.9490639114,1.907716672,0.1521035842,2.136174316
49.407008,-0.8987572454,1.629724252,0.4964150872,1.9261863
49.416989,-0.7274497604,1.285173562,0.7139058548,1.640279186
49.426971,-0.5749326684,0.888071605,0.8039266634,1.328727522
49.436952,-0.4100830677,0.3849929577,0.7184672678,0.9124598154
49.446933,-0.2058934001,-0.1070771366,0.433491555,0.4917037052
49.456915,-0.09119968034,-0.5494955993,0.002975099869,0.5570203287
49.466896,-0.05114917673,-0.8579642916,-0.4614727477,0.9755388566
49.476877,0.05210994735,-0.9742016762,-0.898395522,1.326234846
49.486859,0.2454436013,-1.002105174,-1.20856685,1.589053546
49.49684,0.503426045,-0.978931489,-1.396416839,1.778123908
49.506821,0.709888306,-0.8127471882,-1.463127723,1.818032489
49.516803,0.679376877,-0.5083890885,-1.30387705,1.555669556
49.52678362,0.5279591346,-0.1387895107,-0.9407491708,1.087663725
49.53676463,0.536012724,0.1821115315,-0.4197674821,0.7047545595
49.54674662,0.7447084752,0.3943368083,0.1397168609,0.854173889
49.55672763,0.9417975035,0.5177767932,0.6254211098,1.243473727
49.56670863,1.072315981,0.7045584959,0.9411725092,1.591247916
49.57669062,1.139603985,0.933952952,1.143345838,1.864994655
49.58667163,1.092205212,1.070363231,1.313822579,2.016114938
49.59665262,1.143992905,1.14181913,1.380541649,2.125644828
49.60663463,1.210722134,1.189115503,1.33883229,2.161553993
49.61661562,1.262871989,1.208043525,1.297134626,2.176412887
49.62659662,1.247121344,1.209215891,1.253389267,2.142078283
49.63657863,1.14007856,1.198026659,1.123367071,1.999250003
49.64655962,1.009629225,1.164877625,0.9649823713,1.818648407
49.65654063,0.8116243035,1.065467357,0.7909142697,1.55547423
49.66652262,0.5743507243,0.9536253244,0.6629327524,1.295669652
49.67650362,0.37393675,0.863876996,0.5927895534,1.112434992
49.68648463,0.2532190094,0.7450475407,0.4872438025,0.925538885
49.69646662,0.2089742249,0.6288323754,0.308681531,0.7310161904
49.70644763,0.06770958781,0.5818599379,0.161496588,0.6076402913
49.71642862,-0.1742680764,0.610138827,0.1617176127,0.6548216069
49.72641063,-0.4067448192,0.6879085493,0.2532920265,0.8383414405
49.73639162,-0.574334279,0.7261411536,0.3562778664,0.9920054219
49.74637262,-0.7096455735,0.6927488744,0.4387680459,1.084442364
49.75635463,-0.8490970621,0.6632116646,0.5446143436,1.207236645
49.76633562,-1.026608589,0.6146148705,0.636403935,1.355244112
49.77631663,-1.186548941,0.5217336041,0.7110062206,1.478389052
49.78629862,-1.324155779,0.377923674,0.7099104524,1.549253911
49.79627962,-1.37931081,0.1635659176,0.6846399558,1.548542537
49.80626063,-1.42681242,-0.1159023392,0.6658107519,1.578775156
49.81624262,-1.543203002,-0.3325153667,0.5583038449,1.674438759
49.82622363,-1.674099357,-0.4659476584,0.385588789,1.77999848
49.83620462,-1.816005141,-0.5944057238,0.1810379827,1.919366455
49.84618662,-1.908120714,-0.7417631596,-0.02557805558,2.047386501
49.85616763,-1.915374478,-0.8546313787,-0.2637328148,2.113908508
49.86614862,-1.820437623,-0.9337529773,-0.5572922766,2.120486369
49.87613063,-1.644579396,-1.027231244,-0.804696157,2.099376413
49.88611162,-1.324528247,-1.2525958,-0.9280782545,2.045654066
49.89609263,-0.9639433211,-1.559461185,-0.9475880742,2.063741523
49.90607462,-0.6411520933,-1.807039897,-0.8710585463,2.105994347
49.91605562,-0.3028848206,-1.994405152,-0.6950795746,2.133665096
49.92603663,0.06748037696,-2.093802556,-0.4213643932,2.136845969
49.93601862,0.4917357798,-2.097990916,-0.1140323814,2.157863144
49.94599963,0.7888598505,-1.933258479,0.1483064389,2.093270888
49.95598062,0.8829459357,-1.51221159,0.2872900772,1.774517683
49.96596262,0.7439178586,-0.9329881614,0.3386578667,1.240391003
49.97594363,0.5480519948,-0.2908141941,0.3665327132,0.7206109313
49.98592462,0.4324557573,0.2261410654,0.4853306301,0.688261276
49.99590663,0.4019701291,0.5172464508,0.7358323288,0.9851766804
50.00588762,0.4430599753,0.5351833695,1.00763664,1.223950562
10.01144287,2.276742053,0.03692165852,-0.5052789545,2.332428864
10.02142487,2.248749824,-0.3536817026,-0.5289911681,2.337049031
10.03140588,2.129655928,-0.7399791741,-0.3325709152,2.278948653
10.04138787,1.984486813,-1.078002618,-0.07465257168,2.259612923
10.05136887,1.826602342,-1.313489873,0.1697856009,2.256226698
10.06135087,1.69649887,-1.44322614,0.4253808457,2.267588801
10.07133187,1.622722504,-1.49554644,0.6573398906,2.302603572
10.08131288,1.53588989,-1.471260615,0.8230055434,2.280548985
10.09129487,1.393181867,-1.380793079,0.8674636781,2.144770029
10.10127588,1.132972438,-1.250933436,0.8087582177,1.871510316
10.11125787,0.8689377612,-1.172221143,0.6425207072,1.594361345
10.12123887,0.6680987674,-1.16141081,0.3228271151,1.378204767
10.13122087,0.5370138404,-1.180995474,-0.1131845534,1.3022845
10.14120187,0.5074164042,-1.192938997,-0.542267856,1.405215032
10.15118388,0.6011345534,-1.161146516,-0.9062079138,1.590860386
10.16116487,0.7249345806,-1.029106447,-1.185176818,1.728940229
10.17114687,0.8895809175,-0.8523737687,-1.409859003,1.872324133
10.18112787,1.052192423,-0.6832810628,-1.576643229,2.014891009
10.19110887,1.143421267,-0.557406882,-1.605226758,2.048137585
10.20109087,1.156491255,-0.4995451748,-1.510652722,1.967000013
10.21107187,1.122214877,-0.5216610986,-1.295697965,1.791739308
10.22105388,1.027888764,-0.5798929346,-1.120268047,1.627215912
10.23103487,0.8449133062,-0.5816880298,-0.9965748775,1.430175145
10.24101687,0.7229512051,-0.5633359587,-0.894146862,1.280431356
10.25099787,0.5685544525,-0.4821508777,-0.6596027631,0.9953890894
10.26097987,0.4514177661,-0.4026772767,-0.3960102814,0.7230153053
10.27096088,0.4266986619,-0.3491372466,-0.2385856944,0.6007426226
10.28094287,0.4136251648,-0.3039423627,-0.1926657557,0.548257996
10.29092387,0.4447567642,-0.18639871,-0.1187657207,0.4966471129
10.30090487,0.5616139537,-0.006102738976,0.0385752511,0.5629702713
10.31088687,0.7244941391,0.1909782493,0.1622818691,0.7666158453
10.32086787,0.9185611801,0.3340964538,0.2206049216,1.002018769
10.33084987,1.061117467,0.4312736696,0.2347686321,1.169223489
10.34083088,1.092470822,0.5041252989,0.3194930327,1.244873733
10.35081287,1.066209953,0.6019439542,0.5329912484,1.335372555
10.36079387,1.040025098,0.7037100649,0.7791479176,1.477813093
10.37077587,1.02348698,0.7829942161,0.9826193279,1.620538887
10.38075687,1.012847825,0.8568907428,1.145569534,1.752841127
10.39073888,1.042085511,0.8963775748,1.255279087,1.861494173
10.40071987,1.107606778,0.896713205,1.278565038,1.914579825
10.41070087,1.178600455,0.8481245971,1.105733623,1.825119505
10.42068287,1.24334492,0.7401382184,0.8811017239,1.694122611
10.43066387,1.33043028,0.619714812,0.782801258,1.66339081
10.44064587,1.436268538,0.4869169432,0.8355016279,1.731478672
10.45062687,1.495602281,0.3450009263,0.9824819183,1.822394728
10.46060888,1.417382323,0.2325911289,1.06429499,1.787678693
10.47059067,1.279044949,0.1508464694,1.01579643,1.64029053
10.48057267,1.069482055,0.09509385288,1.032752185,1.489769037
10.49055367,0.927143577,0.163800391,1.225618501,1.545498784
10.50053567,0.8799147391,0.2793068737,1.546970363,1.801493709
10.51051667,0.8616163163,0.3772114831,1.758715584,1.994430165
10.52049767,0.7979388222,0.4068030721,1.609885234,1.842260994
10.53047967,0.7648011893,0.3778242713,1.100218529,1.392175582
10.54046067,0.6998883247,0.2775667423,0.3742077684,0.8407844061
10.55044267,0.6155945715,0.1258689183,-0.3319125187,0.7106093028
10.56042367,0.4971162415,-0.0577014935,-0.7723014128,0.9202735963
10.57040567,0.3353650072,-0.2396931571,-0.9061921263,0.995543403
10.58038667,0.1301844558,-0.4510208863,-0.7274117535,0.8657341922
10.59036867,-0.02729144052,-0.635194146,-0.3049662101,0.7051388624
10.60034967,-0.0849334386,-0.7523056895,0.2226105165,0.7891343241
10.61033167,-0.02027229667,-0.8448133188,0.636685186,1.058058853
10.62031267,0.2033508115,-0.8599400657,0.8893182313,1.253688712
10.63029367,0.4162205976,-0.7935016626,0.9719078135,1.321926349
10.64027567,0.6130149262,-0.670313108,0.9247114277,1.29622459
10.65025667,1.004807465,-0.3742247254,0.9671417481,1.44396861
10.66023867,1.391378878,-0.1051873165,0.860176878,1.639177787
10.67021967,1.629772784,0.2016751456,0.6859216654,1.779696807
10.68020167,1.729008658,0.4909503525,0.6333212829,1.90567548
10.69018267,1.722526143,0.6587876612,0.6083905095,1.941967175
10.70016467,1.720989641,0.6688741082,0.5348641115,1.922310468
10.71014567,1.763411044,0.6064673603,0.4253761679,1.912685561
10.72012767,1.879566714,0.4928004116,0.275269956,1.962497599
10.73010867,1.87648874,0.4248241907,0.1689611435,1.931381229
10.74008967,1.74578549,0.4422208267,-0.02432441711,1.80108798
10.75007167,1.566794763,0.4329383719,-0.3103696221,1.654874849
10.76005267,1.316483647,0.4683175349,-0.5214441669,1.49142701
10.77003467,1.086560603,0.4864719701,-0.4978635156,1.290401876
10.78001567,0.9302599968,0.4465249622,-0.2953604043,1.073315411
10.78999767,0.8726337862,0.3827224839,-0.07660905004,0.9559472637
10.79997867,1.003558938,0.3403670079,0.2704892725,1.093683999
10.80996067,1.178120252,0.2623932177,0.5434881699,1.323705753
10.81994167,1.285298984,0.3002668029,0.828323586,1.558291884
10.82992367,1.160847285,0.2012956613,1.113532054,1.621123067
10.83990467,0.8175860515,0.0840806222,1.222368618,1.472990679
10.84988567,0.3152004455,-0.2157137257,1.041480909,1.109308891
10.85986767,-0.144027008,-0.4757399905,0.7584359103,0.9068061246
10.86984867,-0.468332153,-0.5994992334,0.4862737495,0.9028823266
10.87983067,-0.5851375946,-0.6553611928,0.1940942305,0.8997537819
10.88981167,-0.533580063,-0.6275535893,-0.1159432697,0.8318497658
10.89979367,-0.4938318604,-0.3888222992,-0.2807119596,0.6883690079
10.90977467,-0.3609157316,-0.09635275841,-0.35648018,0.5163546631
10.91975667,-0.2456495695,0.1020841992,-0.4973127079,0.5639900922
10.92973767,-0.1934713559,0.3180288899,-0.6133857858,0.7175065593
10.93971967,-0.08219124064,0.4902662283,-0.6037577605,0.7820740426
10.94970067,0.04304018497,0.6230091333,-0.461580373,0.7765624756
10.95968167,0.1489338452,0.72458404,-0.2190203261,0.7714747077
10.96966367,0.2540464635,0.7988208747,0.1766613418,0.8566584063
10.97964467,0.2635965747,0.8301490867,0.7053238964,1.12076423
10.98962667,0.19923788,0.7916358161,1.230712595,1.476833264
10.99960767,0.1338858895,0.6319787621,1.561977827,1.690295039
11.00958967,0.2075841956,0.376056658,1.637554843,1.692954717
11.01957067,0.3215233321,0.252259993,1.366115398,1.425932551
11.02955267,0.3883776185,0.1687091285,0.9150512427,1.008275122
11.03953367,0.5502888472,0.1219711643,0.3479555243,0.6623955217
11.04951567,0.6143556927,0.1584104276,-0.06927605689,0.6382209279
11.05949667,0.6462749121,0.2098589087,-0.2233706546,0.7152667145
11.06947767,0.6610392778,0.1710427523,-0.1612410647,0.7015890754
11.07945967,0.5089003544,0.1224640846,0.2488206607,0.5795590944
11.08944067,0.2381414522,0.1265840328,0.9559700578,0.9932842595
11.09942267,-0.08049664445,-0.02535878956,1.69989084,1.70198462
11.10940367,-0.3236151735,-0.00605537653,2.212092313,2.235646629
11.11938567,-0.6274094555,0.1513399744,2.451190224,2.534734685
11.12936667,-0.6474086872,0.1590992296,2.55565307,2.641176478
11.13934867,-0.5297878147,0.02509098709,2.196396047,2.259526562
11.14932967,-0.4611052868,-0.08524538755,1.204784871,1.292823054
11.15931167,-0.3391852856,-0.07633656979,-0.02305440187,0.3484328275
11.16929267,-0.05061550867,-0.08094242156,-1.015225741,1.019704325
11.17927367,0.2796582913,-0.1135231072,-1.562363158,1.591249476
11.18925567,0.4363174778,-0.07536008477,-1.938589386,1.98851223
11.19923667,0.3351396336,0.02700770438,-1.770255064,1.801902045
11.20921867,0.1894351691,0.03063531697,-1.089683601,1.106451334
11.21919967,-0.07637015473,-0.1400612801,-0.2441241771,0.2916267762
11.22918167,-0.3269464785,-0.4435715336,0.3949408257,0.677958672
11.23916267,-0.6155758604,-0.7517279845,0.7507041371,1.227837654
11.24914467,-0.8931189215,-0.9850184405,0.8277300936,1.566224711
11.25912567,-1.044399254,-1.065466188,0.7260300565,1.65924912
11.26910767,-1.088471765,-0.9964485776,0.3075202739,1.507398179
11.27908867,-1.055078317,-0.7875930512,-0.2215083164,1.335125089
11.28907067,-0.9057103157,-0.506260702,-0.6169391388,1.207155738
11.29905167,-0.570794667,-0.2671739012,-0.8265653282,1.039422285
11.30903267,-0.3449781221,-0.08126109481,-0.9423097926,1.006757675
11.31901467,-0.313343516,0.01195053935,-1.047277254,1.093213895
11.32899567,-0.3052799132,-0.02574412107,-1.204490756,1.242842133
11.33897767,-0.4359850636,-0.08891568482,-1.240553459,1.317938488
11.34895867,-0.5851647842,-0.2363754469,-1.393574508,1.529817337
11.35894067,-0.6628497219,-0.3410903084,-1.475858281,1.65344187
11.36892167,-0.6015042436,-0.4155797428,-1.51816581,1.685034511
11.37890367,-0.6005923703,-0.3535577416,-1.406249517,1.569475064
11.38888467,-0.433542974,-0.2953902251,-1.338611265,1.437739551
11.39886667,-0.402104542,-0.1861338311,-1.267550054,1.342764687
11.40884767,-0.4851031369,-0.03153520346,-1.12416814,1.224774889
11.41882867,-0.5165158412,0.09956755757,-0.9533306247,1.088825786
11.42881067,-0.5422403741,0.1859174842,-0.8133979833,0.9950910579
11.43879167,-0.6149306202,0.2826924115,-0.6977470744,0.9720625736
11.44877367,-0.6151349804,0.3932252526,-0.5447687101,0.9109281481
11.45875467,-0.6003318769,0.5353774971,-0.3367037272,0.8720073547
11.46873663,-0.5738957378,0.7059787846,-0.05379087567,0.9114032151
11.47871762,-0.4680777991,0.864139536,0.2479324687,1.013560296
11.48869962,-0.3059283695,1.02212604,0.453875497,1.159455379
11.49868062,-0.1964222994,1.113087666,0.3618496782,1.186794448
11.50866262,-0.1870416114,1.12227832,0.1056814063,1.14265557
11.51864363,-0.2301940629,1.100917271,-0.1405723268,1.133476389
11.52862462,-0.3022019389,1.082583911,-0.2663172841,1.155092565
11.53860662,-0.395039936,1.075053282,-0.2624090052,1.175012594
11.54858762,-0.4807782438,1.06619592,-0.1351677454,1.177366459
11.55856962,-0.5579609057,1.021574063,0.01793633401,1.164154479
11.56855063,-0.6082569006,0.9000712609,0.0939501375,1.090381291
11.57853262,-0.659864426,0.7830936188,0.1497583026,1.034931991
11.58851362,-0.7232005888,0.6604313135,0.1489800382,0.9906481027
11.59849562,-0.7384121203,0.581687445,0.09125223219,0.9444255995
11.60847662,-0.6680861959,0.5709297377,-0.06438018322,0.8811610174
11.61845862,-0.6739793122,0.5904763949,-0.3012386101,0.9453333732
11.62843962,-0.6796195364,0.5670085949,-0.5321948576,1.032769494
11.63842063,-0.6197425863,0.4455625105,-0.6936832595,1.0314084
11.64840262,-0.5982911986,0.3070332009,-0.6197808856,0.9145217826
11.65838362,-0.7189879623,0.2020037591,-0.0712530005,0.7502174343
11.66836562,-0.9521462712,0.1247661334,0.8418698305,1.277064572
11.67834662,-1.228514042,0.045394274,1.728522316,2.121107444
11.68832863,-1.450545976,-0.04466746509,2.204610801,2.63939152
11.69830962,-1.534917205,-0.147071507,2.180358304,2.670498678
11.70829163,-1.503411823,-0.2183221686,1.864902189,2.405363144
11.71827262,-1.393240924,-0.2459315515,1.440738149,2.019239712
11.72825462,-1.225151016,-0.2281811589,1.03297321,1.618670845
11.73823562,-1.053145812,-0.1152848732,0.6462898225,1.241006542
11.74821762,-0.848588866,-0.03468100548,0.2340406537,0.8809545182
11.75819863,-0.6794128373,-0.06673895001,-0.2312111861,0.7207735452
11.76817962,-0.6141125947,-0.1128910232,-0.6652891803,0.9124079984
11.77816162,-0.5827250335,-0.1774302506,-1.037150461,1.202801329
11.78814262,-0.6789661101,-0.1977773917,-1.143900154,1.344848853
11.79812462,-0.8738412362,-0.1812806422,-0.8892533273,1.259854221
11.80810563,-1.076696058,-0.1959577382,-0.4516465384,1.183916564
11.81808762,-1.220397814,-0.2534499013,-0.1157169825,1.251797946
11.82806863,-1.300122845,-0.3706468141,0.1263934135,1.357819491
11.83805062,-1.337841479,-0.5027149504,0.3991590071,1.48386996
11.84803162,-1.359404841,-0.6529761136,0.7443090373,1.681771468
11.85801362,-1.353471964,-0.7717932898,1.073399105,1.892019259
11.86799462,-1.364297207,-0.8682162148,1.325091918,2.090687651
11.87797563,-1.412794013,-0.9538521963,1.521258402,2.28474245
11.88795762,-1.444549657,-1.049695078,1.608806423,2.4035061
11.89793862,-1.443195734,-1.14758273,1.540027379,2.402383062
11.90792062,-1.417848639,-1.188867581,1.368640811,2.301494853
11.91790162,-1.308648378,-1.186094831,1.085229192,2.072945712
11.92788363,-1.139620869,-1.149217612,0.6424891323,1.741329701
11.93786462,-0.9796360785,-1.072730184,0.1433965319,1.459794321
11.94784663,-0.9122814167,-0.9395674485,-0.2891190863,1.341131694
11.95782762,-0.8255417731,-0.8028741646,-0.6084454733,1.302433122
11.96780962,-0.789778448,-0.7126656604,-0.8352770948,1.352527325
11.97779062,-0.8035351923,-0.6816643077,-1.00501124,1.456153366
11.98777262,-0.8023426527,-0.6768280756,-1.101180396,1.521331075
11.99775363,-0.8335723391,-0.6653084761,-1.064160504,1.506623972
12.00773462,-0.984711754,-0.5907482904,-0.8400361437,1.422779499
12.01771662,-1.14090521,-0.5030915111,-0.5174300534,1.349999862
12.02769762,-1.313781064,-0.4591660577,-0.2323502237,1.410971573
12.03767962,-1.43543414,-0.4786881566,-0.09445299804,1.516091979
12.04766063,-1.570696903,-0.5313809252,-0.09876765847,1.661086842
12.05764262,-1.648623915,-0.5435261768,-0.158755998,1.743153747
12.06762363,-1.645340703,-0.5180106819,-0.2440294522,1.742134171
12.07760562,-1.655310206,-0.4336944169,-0.2839635962,1.734582961
12.08758662,-1.719144844,-0.326916073,-0.2542954087,1.768332341
12.09756862,-1.824685332,-0.2445206183,-0.1141253704,1.844530156
12.10754962,-1.867352465,-0.2151769513,0.05541757107,1.880525846
12.11753063,-1.941039661,-0.2144472188,0.2410122889,1.967666003
12.12751262,-2.044625864,-0.222884751,0.4820146376,2.112465538
12.13749362,-2.103856258,-0.2306375742,0.7125136328,2.233177226
12.14747562,-2.107447034,-0.2016739762,0.9246459389,2.310189495
12.15745662,-2.060632763,-0.1482210696,1.053610373,2.319110107
12.16743862,-2.029921579,-0.06315986931,1.104111605,2.311629992
12.17741962,-1.977996257,-0.003263331056,1.119885054,2.27302054
12.18740163,-1.982636754,-0.02638439119,1.219271348,2.327695696
12.19738262,-2.010227279,-0.06945088863,1.477194954,2.495584515
12.20736462,-2.01137348,-0.1633343679,1.713444101,2.647299016
12.21734562,-2.051979323,-0.3156017107,1.815051752,2.75765053
12.22732662,-1.895121623,-0.4022878522,1.920182936,2.727714059
12.23730863,-1.926771286,-0.4868210489,2.039329895,2.847509217
12.24728962,-1.901333851,-0.6226735032,2.21156314,2.982248184
12.25727162,-1.788453499,-0.7478670681,2.447639794,3.122308702
12.26725262,-1.789490649,-0.8759368783,2.717926753,3.369965583
12.27723462,-1.763715976,-1.003469329,3.063265064,3.674403025
12.28721563,-1.730905934,-1.042334602,3.389314579,3.945877607
12.29719762,-1.679990865,-1.076881122,3.58281064,4.101045518
12.30717863,-1.661487789,-1.049606785,3.769963056,4.251451225
12.31716062,-1.669658542,-1.06420202,3.824360288,4.306508702
12.32714162,-1.682128461,-1.233250871,3.500374255,4.074688183
12.33712362,-1.630748684,-1.537167506,2.894401569,3.660571766
12.34710462,-1.399588369,-1.9138007,2.115923157,3.177831262
12.35708563,-1.120898815,-2.220569606,1.292094911,2.803007811
12.36706762,-0.8434019472,-2.344751018,0.6819601768,2.583457734
12.37704862,-0.6843306381,-2.32953364,0.3921353316,2.45943195
12.38703062,-0.6383485727,-2.202699346,0.4191582388,2.331323002
12.39701162,-0.8665423031,-2.088026676,0.6744149297,2.359149521
12.40699362,-1.113816083,-1.945114294,1.271503356,2.576970444
12.41697462,-1.32163519,-1.939413843,1.752240962,2.928889554
12.42695663,-1.465997098,-2.100688237,1.967645954,3.230119063
12.43693762,-1.652106809,-2.258583525,1.94700236,3.4090284
12.44691962,-1.703663171,-2.291390498,1.74622827,3.346976514
12.45690062,-1.621015555,-2.330644611,1.57096909,3.244617021
12.46688212,-1.452196645,-2.317483698,1.350472927,3.050144736
12.47686312,-1.407582975,-2.158176892,1.127034445,2.812334256
12.48684413,-1.309969118,-1.963513142,0.8753767151,2.517476384
12.49682612,-1.265283965,-1.812698833,0.5965890741,2.28970284
12.50680712,-1.190017582,-1.722717201,0.3382783824,2.120926369
12.51678912,-1.102421395,-1.590207015,0.2407105726,1.949880217
12.52677012,-1.039187558,-1.508549479,0.2447966069,1.848122747
12.53675213,-0.9047013786,-1.39650981,0.291118834,1.68922302
12.54673312,-0.7079530969,-1.274892987,0.2972812146,1.488262691
12.55671512,-0.5039972448,-1.062976443,0.3473462445,1.226613857
12.56669612,-0.3476793896,-0.7516426152,0.5120804358,0.9736908912
12.57667812,-0.1408402846,-0.549517234,0.6003985351,0.8260045867
12.58665913,-0.08017552268,-0.3899636757,0.5577963066,0.685300301
12.59664012,-0.06380722918,-0.2868170375,0.333669607,0.4446018243
12.60662213,-0.2072844344,-0.3032137996,0.04956333876,0.3706237574
12.61660312,-0.3299264023,-0.3468907464,-0.203549763,0.5202087339
12.62658512,-0.395326011,-0.3769436806,-0.3838539201,0.6676174244
12.63656612,-0.4783600547,-0.3436198139,-0.4649495387,0.750387228
12.64654812,-0.5349301485,-0.2808411831,-0.4118568206,0.7311963311
12.65652913,-0.5333067787,-0.2380413187,-0.355602513,0.683763802
12.66651112,-0.5740011704,-0.2257142186,-0.3377603191,0.7032114087
12.67649212,-0.672524598,-0.2523640734,-0.3424141181,0.795753975
12.68647412,-0.7737402664,-0.3142100734,-0.3273668933,0.8969788475
12.69645512,-0.8701117359,-0.3710450095,-0.232559554,0.9740907443
12.70643613,-0.8789180812,-0.4539368927,-0.1203146482,0.9965095638
12.71641812,-0.8546167606,-0.4493146688,-0.0332607168,0.9661054572
12.72639913,-0.7843021651,-0.379280228,-0.01099627376,0.8712659156
12.73638112,-0.7029008102,-0.3019385219,-0.04860381067,0.7665499008
12.74636212,-0.7658655287,-0.142608912,0.142911213,0.7920296236
12.75634412,-0.8474530444,0.01569509625,0.5118635041,0.9901652616
12.76632512,-0.8658619796,0.0234754014,0.7786152363,1.164692985
12.77630713,-0.9863926093,-0.1424364191,0.8624058366,1.317953846
12.78628812,-1.101361221,-0.3420217699,0.9436932439,1.490145083
12.79627012,-1.152582611,-0.4409367782,1.135660842,1.677080042
12.80625112,-1.194784963,-0.5054953015,1.246303026,1.798974108
12.81623312,-1.170992204,-0.5335917574,1.186916365,1.750632275
12.82621412,-1.036866798,-0.5149952728,1.029051483,1.548954435
12.83619512,-0.8453935819,-0.4546128309,0.781814248,1.237980877
12.84617713,-0.6489535215,-0.3489799565,0.5896402431,0.9437178071
12.85615812,-0.6245033893,-0.2430108672,0.4779321116,0.8230904374
12.86614012,-0.7562651315,-0.1825541657,0.4304468733,0.8891273718
12.87612112,-0.961483836,-0.2474810636,0.3954612279,1.068684999
12.88610312,-1.118843373,-0.4029117501,0.4468383729,1.27035936
12.89608413,-1.161444286,-0.5520794839,0.664586345,1.447556422
12.90606612,-1.22865686,-0.6199966478,1.078589678,1.748527729
12.91604712,-1.330391542,-0.5002620435,1.606403802,2.144932853
12.92602912,-1.173443942,-0.5052783698,2.07456814,2.436413323
12.93601012,-1.015053102,-0.3509253252,1.89342023,2.176814542
12.94599113,-0.9493616809,-0.293525548,1.050274537,1.445863566
12.95597312,-0.8481704977,-0.3342584217,0.141689145,0.9226037608
12.96595413,-0.7509684312,-0.4547940946,-0.4000664949,0.9648028055
12.97593612,-0.7736468571,-0.5918452281,-0.5593148285,1.123228966
12.98591712,-0.8727839135,-0.660266422,-0.04326939583,1.095251454
12.99589912,-1.11028378,-0.74368397,0.9475155687,1.638164116
13.00588012,-1.403966618,-0.965142585,1.867421755,2.527822479
13.01586213,-1.581769775,-1.253658823,2.249361881,3.022132515
13.02584312,-1.747647389,-1.428895783,2.247391369,3.18540147
13.03582512,-1.739314084,-1.641368397,1.871530008,3.036762794
13.04580612,-1.594070562,-1.814340146,1.356118414,2.769828203
13.05578812,-1.512383644,-1.77951296,0.9197769624,2.509972176
13.06576912,-1.381017905,-1.676663945,0.6384206396,2.264065669
13.07575012,-1.303833196,-1.574363399,0.441197564,2.091233226
13.08573213,-1.281744023,-1.455857295,0.271496163,1.95859602
13.09571312,-1.284643365,-1.36642764,0.1734851342,1.883488827
13.10569512,-1.353404721,-1.35288081,0.06395275176,1.914701225
13.11567612,-1.518115231,-1.435486765,-0.06836038291,2.090447141
13.12565812,-1.587399474,-1.593277972,-0.1204812938,2.252307157
13.13563913,-1.591393269,-1.734874731,-0.09668838859,2.35619853
13.14562112,-1.567051017,-1.816379655,-0.01040044248,2.398956463
13.15560212,-1.515995615,-1.800396291,0.1087593806,2.356161733
13.16558412,-1.460202068,-1.656289322,0.2943663776,2.227585232
13.17556512,-1.342856929,-1.37632873,0.490145191,1.984386004
13.18554612,-1.176295775,-1.070604136,0.6459033215,1.716699178
13.19552812,-1.064041221,-0.8370675123,0.631086477,1.493698725
13.20550913,-0.9510499182,-0.6894691712,0.5085756147,1.280044078
13.21549112,-0.8456944942,-0.6151212394,0.2957416427,1.086755003
13.22547212,-0.8061009505,-0.5779592603,0.100814184,0.9969950595
13.23545412,-0.8060114881,-0.5121839315,-0.01379475117,0.9550796793
13.24543512,-0.9173103145,-0.4262129045,-0.002910743952,1.011495984
13.25541713,-1.162944243,-0.3690224576,0.1469539779,1.228906977
13.26539812,-1.356149989,-0.3796000707,0.3837586105,1.459626554
13.27538013,-1.454930803,-0.4099213922,0.686044457,1.659974755
13.28536112,-1.399134333,-0.3959570718,0.9728638333,1.749520769
13.29534312,-1.260250974,-0.358578161,1.144771973,1.739917724
13.30532412,-1.132834883,-0.2611226177,1.139479659,1.627855579
13.31530512,-1.066789997,-0.09911030531,0.9968456036,1.463408661
13.32528713,-0.9530093202,0.09859399617,0.8320453387,1.268955077
13.33526812,-0.8999063694,0.2727895671,0.7357598233,1.193979958
13.34525012,-0.8846427977,0.3412680638,0.6808123684,1.167288418
13.35523112,-0.8552301335,0.3065227389,0.6708820421,1.129361539
13.36521312,-0.8408614781,0.2537966412,0.5908424306,1.058562959
13.37519413,-0.8227389103,0.1841276515,0.5172341716,0.9891074233
13.38517612,-0.7023994115,0.1306355685,0.4976343048,0.8706724334
13.39515712,-0.5875311524,0.1781857109,0.5423526406,0.8192004574
13.40513912,-0.5048617557,0.2748588967,0.610153445,0.8382839805
13.41512012,-0.4232971904,0.377923674,0.7957756448,0.9773769445
13.42510112,-0.3578198137,0.3933650011,1.061375476,1.187134762
13.43508312,-0.2378214633,0.2538901967,1.205824506,1.255002797
13.44506413,-0.1494887825,-0.01606814861,1.20311783,1.212475812
13.45504612,-0.1514677361,-0.249437542,1.227628189,1.261836967
13.46502712,-0.2597687315,-0.3330778688,1.434931864,1.495810855
13.47500879,-0.4739899554,-0.3075541878,1.787025463,1.874224123
13.48498979,-0.7311525097,-0.2100331557,2.215134619,2.34211855
13.49497179,-0.8867270377,-0.06312829435,2.493348064,2.647084167
13.50495279,-0.9870140952,0.05457674146,2.503985903,2.692047705
13.51493479,-1.158700041,0.05259979784,2.160684178,2.452327189
13.52491579,-1.122846669,0.03178487957,1.748224509,2.077999965
13.53489779,-0.9335249358,-0.1854748499,1.205643243,1.536048617
13.54487879,-0.7483053169,-0.4096600217,0.5356119704,1.007304504
13.55485979,-0.4474836497,-0.6323512298,0.003508914113,0.7746754205
13.56484179,-0.3069902238,-0.8588787961,-0.3088282961,0.9629593451
13.57482279,-0.248912462,-0.987111159,-0.2966082001,1.060340643
13.58480479,-0.3032901058,-1.103316969,-0.0217995894,1.144451154
13.59478579,-0.367279695,-1.211664705,0.3706842363,1.319254538
13.60476779,-0.5006827506,-1.30142005,0.7784930295,1.597006187
13.61474879,-0.6224103785,-1.345806849,1.190662091,1.901648487
13.62473079,-0.6911055145,-1.370402577,1.492971327,2.141166373
13.63471179,-0.6958736265,-1.388048889,1.564362321,2.20412098
13.64469379,-0.6734825912,-1.350395744,1.382445502,2.046534396
13.65467479,-0.6359384966,-1.281888596,1.0024601,1.747164101
13.66465679,-0.6722616926,-1.142242468,0.6208485872,1.46359373
13.67463779,-0.7241680107,-0.9596766078,0.3217032802,1.244544696
13.68461879,-0.7771180567,-0.8365564656,0.102930876,1.14644405
13.69460079,-0.8330992994,-0.7530441928,-0.0289062953,1.123372411
13.70458179,-0.8428559634,-0.7227895296,-0.1079220593,1.115561764
13.71456379,-0.8488835657,-0.7833181518,-0.1899263352,1.170582183
13.72454479,-0.9339450583,-0.8591349041,-0.2420185947,1.29187428
13.73452679,-1.012758509,-0.9063090706,-0.1808216357,1.371047918
13.74450779,-1.053351634,-0.9560489953,-0.2174263752,1.439046064
13.75448979,-1.057991107,-0.9622166383,-0.381691035,1.480166912
13.76447079,-1.121557943,-0.8897322142,-0.5505615467,1.533829733
13.77445279,-1.225001912,-0.772821815,-0.4970829123,1.53133101
13.78443379,-1.301363332,-0.6015153533,-0.2380097437,1.453277634
13.79441579,-1.399887747,-0.4931278557,0.009001203775,1.484231049
13.80439679,-1.405977329,-0.3994268095,0.1268050575,1.467103796
13.81437779,-1.427859364,-0.346549269,0.1802889544,1.480332013
13.82435979,-1.54745042,-0.2795471942,0.2780620015,1.596893206
13.83434079,-1.668357098,-0.2027042556,0.4379628843,1.736754419
13.84432279,-1.758938947,-0.1870150065,0.514614619,1.842191369
13.85430379,-1.832180294,-0.1722882092,0.5533606088,1.921659652
13.86428579,-1.774659187,-0.1180845201,0.5413422418,1.859142438
13.87426679,-1.631561447,-0.09654045403,0.4526429039,1.695935852
13.88424879,-1.472401991,-0.01165291607,0.319066186,1.506620936
13.89422979,-1.305454921,0.1044078827,0.2355135673,1.330631504
13.90421179,-1.099847523,0.2288565123,0.2612617815,1.153385277
13.91419279,-0.9727813876,0.3605954504,0.3665338826,1.100308954
13.92417379,-0.9220787188,0.4073959798,0.4245721757,1.093829137
13.93415579,-0.9008547878,0.423204512,0.4531130201,1.093596277
13.94413679,-0.9945900401,0.4152487904,0.5623208821,1.215666764
13.95411879,-1.061496805,0.4069381428,0.7507368815,1.362343563
13.96409979,-1.122844915,0.2901201296,0.8194533598,1.420019085
13.97408179,-1.211210377,0.155127216,0.8481216735,1.48674322
13.98406279,-1.256411985,0.03196438909,0.8648458797,1.525631408
13.99404479,-1.31191054,-0.03218541384,0.87992351,1.580003338
14.00402579,-1.299137005,-0.04037151575,0.8847082865,1.572289913
14.01400779,-1.203254655,-0.03977276087,0.8507347941,1.474161907
14.02398879,-1.034954247,-0.01479696393,0.7138666785,1.257360282
14.03397079,-0.8008141905,0.01080565453,0.4604881132,0.9238340935
14.04395179,-0.6754873091,0.05388560057,0.1654171461,0.6975310709
14.05393279,-0.6093982771,0.1082658756,-0.03530548811,0.6199469634
14.06391479,-0.669351241,0.1221652919,-0.04351147056,0.6817981303
14.07389579,-0.8572237417,0.04620118976,0.2106091064,0.883924934
14.08387779,-1.111070961,-0.1180389118,0.7256546652,1.332286215
14.09385879,-1.15233944,-0.3700433815,1.299818498,1.776047977
14.10384079,-1.105872787,-0.5502779567,1.748600485,2.140879284
14.11382179,-1.056020595,-0.5656613964,2.033174531,2.359862493
14.12380379,-0.8371976128,-0.5952535701,2.177099651,2.407278452
14.13378479,-0.6387255719,-0.6353099209,2.101195775,2.286178632
14.14376679,-0.4559117898,-0.6839891607,1.538627556,1.744440165
14.15374779,-0.4743616556,-0.643518827,0.7232958984,1.078096664
14.16372979,-0.5423538101,-0.6455583358,0.08587805629,0.847507086
14.17371079,-0.6525700244,-0.6855983144,-0.1936434102,0.9661213463
14.18369179,-0.7786861338,-0.6862146109,-0.1364079398,1.046828407
14.19367379,-0.9264661771,-0.7276029575,0.03183691978,1.178456291
14.20365479,-1.025559672,-0.8892007023,0.1254771549,1.363156281
14.21363679,-1.1331002,-1.063074092,0.1218495423,1.558489621
14.22361779,-1.212877856,-1.221221395,0.05760033667,1.722141744
14.23359979,-1.196550238,-1.365913085,0.006429598331,1.815899878
14.24358079,-1.112977154,-1.488304664,-0.02987810254,1.858672004
14.25356279,-0.9859107256,-1.544474772,-0.04844125807,1.832967221
14.26354379,-0.7314065713,-1.502096491,-0.03098439574,1.670990567
14.27352579,-0.4610937385,-1.373717948,-0.04031772137,1.44959786
14.28350679,-0.2637797387,-1.249488004,-0.1242585951,1.283058932
14.29348879,-0.218491884,-1.125512999,-0.1510113609,1.156426671
14.30346979,-0.2055812319,-1.045984434,-0.1355203325,1.074575656
14.31345079,-0.2456229281,-0.9757617134,-0.1508511472,1.017446614
14.32343279,-0.3175754383,-0.9177760452,-0.220446462,0.9958733207
14.33341379,-0.369791805,-0.8950315458,-0.3473152542,1.028812584
14.34339579,-0.3359908055,-0.9098472208,-0.6476627487,1.166267046
14.35337679,-0.2392960946,-0.9111137277,-0.9622271633,1.34657787
14.36335879,-0.1686415932,-0.8568287623,-1.118616208,1.419118648
14.37333979,-0.1458150865,-0.745523504,-1.115938768,1.349958025
14.38332179,-0.05141573668,-0.5792988575,-1.040614936,1.192103263
14.39330279,0.07000260998,-0.4148073256,-0.974433226,1.061360257
14.40328479,0.1005306305,-0.2525242871,-0.9136274457,0.9531998913
14.41326579,0.1561266513,-0.1228254426,-0.7896588725,0.8142620926
14.42324779,0.1738761668,-0.004052120447,-0.613948288,0.638108017
14.43322879,0.05925279636,0.135206337,-0.3243596703,0.3563717766
14.44320979,-0.04976872221,0.2437347525,-0.03144457161,0.2507435271
14.45319179,-0.1956254701,0.3182733035,0.2159522921,0.4315120077
14.46317279,-0.4332956368,0.4085098743,0.4453286219,0.7436013769
14.47315504,-0.5796629928,0.3758607763,0.5025623381,0.8543122451
14.48313604,-0.6544097047,0.3147836852,0.4224478823,0.8401208504
14.49311804,-0.7126513347,0.3068057442,0.3057257634,0.8339483988
14.50309904,-0.6782031946,0.3475409567,0.190548479,0.7855272195
14.51308104,-0.5696297555,0.460230251,0.1173384154,0.7416591171
14.52306204,-0.436187962,0.6784202725,0.1769917095,0.8257360774
14.53304404,-0.3768308294,0.8600803989,0.2382512337,0.9687638603
14.54302504,-0.3094844998,0.9391867948,0.2843465889,1.028934144
14.55300704,-0.2342229407,0.9204821366,0.3654708588,1.017701675
14.56298804,-0.2238387242,0.8542162263,0.5188421559,1.024200331
14.57296904,-0.2388780552,0.7466730666,0.6123052204,0.994736687
14.58295104,-0.3191269604,0.6135144246,0.547629168,0.8821222544
14.59293204,-0.4639782796,0.5412972182,0.440195936,0.8378848277
14.60291404,-0.6485801768,0.5653111482,0.4046963203,0.9507954836
14.61289504,-0.8038737461,0.6604067552,0.4508881545,1.133865164
14.62287704,-0.8666933805,0.8010855013,0.4895973068,1.277732726
14.63285804,-0.8591966654,0.9004390508,0.4996042317,1.341124074
14.64284004,-0.8027347085,0.9585001481,0.6139395171,1.392848619
14.65282104,-0.781756726,0.9364046896,0.811019336,1.464837767
14.66280304,-0.7603217105,0.8833037853,1.138692623,1.629397303
14.67278404,-0.6886000556,0.8088582051,1.563183523,1.889964116
14.68276604,-0.5540162644,0.7231222361,1.930430766,2.134573196
14.69274704,-0.3324265986,0.625498293,2.045372992,2.164556822
14.70272804,-0.01926759884,0.551352675,1.929073042,2.00641068
14.71271004,0.3149203639,0.5188152587,1.687956088,1.793750223
14.72269104,0.5005220984,0.5568964201,1.533263905,1.706327693
14.73267304,0.6107015484,0.5758981168,1.437159653,1.664344583
14.74265404,0.714300615,0.492308076,1.237413504,1.511219637
14.75263604,0.7808801553,0.3097702825,0.7400604504,1.119562823
14.76261704,0.7722009138,-0.02120375812,-0.001855906248,0.7724942039
14.77259904,0.6777993713,-0.3249052155,-0.6008891165,0.962311341
14.78258004,0.565539153,-0.5977971089,-0.938003903,1.247816989
14.79256204,0.4644544257,-0.83489878,-0.9964567637,1.380470923
14.80254304,0.311434327,-0.9863586223,-0.8588214934,1.344421448
14.81252504,0.1642877564,-1.071774164,-0.5252980667,1.204835418
14.82250604,0.05315009393,-1.152510763,-0.180995298,1.167846433
14.83248704,0.02589366361,-1.221952296,0.05957201779,1.22367754
14.84246904,0.02058402635,-1.232153934,0.2429465479,1.256045399
14.85245004,-0.04378351226,-1.227063932,0.4178437847,1.296995111
14.86243204,-0.03441828277,-1.223172026,0.5021056706,1.32266569
14.87241304,-0.06477212939,-1.123430221,0.5238584822,1.241256863
14.88239504,-0.1281709671,-0.9256165767,0.4908755082,1.055534276
14.89237604,-0.2150181263,-0.7270556581,0.3415124774,0.8315488541
14.90235804,-0.268655878,-0.5492330593,0.02907469511,0.6121096896
14.91233904,-0.2185958914,-0.4247136784,-0.4362765473,0.6469181541
14.92232104,-0.1576412994,-0.3306237924,-0.8624988073,0.9370523273
14.93230204,-0.1220672049,-0.2649197996,-1.094197066,1.132408991
14.94228404,-0.105495611,-0.2434026307,-1.192019815,1.22118197
14.95226504,-0.1005566141,-0.2526137495,-1.256429234,1.285511478
14.96224604,-0.1341219708,-0.2231753576,-1.272204437,1.298576172
14.97222804,-0.2116721302,-0.1500132412,-1.212353507,1.23980244
14.98220904,-0.272799215,-0.1412780857,-1.083891349,1.126587487
14.99219104,-0.3558560628,-0.1561422926,-0.9245190543,1.002870597
15.00217204,-0.405619888,-0.1355378741,-0.7882005769,0.8967486595
20.01287117,-0.1063324937,0.7428215057,1.067371795,1.304750144
20.02285217,-0.007486555651,0.7984238487,0.8104398769,1.137694812
20.03283417,0.07586294532,0.8798550975,0.54090487,1.035605261
20.04281517,0.1583388723,0.9532300526,0.3493354672,1.027498905
20.05279717,0.2513900734,0.950919233,0.3659854138,1.049471143
20.06277817,0.3045951312,0.9494012958,0.7376034504,1.240241857
20.07276017,0.2137459183,0.9613588518,1.454626456,1.756654857
20.08274117,0.0206880337,0.9099296665,2.274723009,2.450054033
20.09272317,-0.223704896,0.7442032027,2.864489552,2.968026732
20.10270417,-0.3881901787,0.6229611862,3.171236824,3.255075306
20.11268517,-0.4318472084,0.4587848192,3.255775284,3.316179763
20.12266717,-0.2769779277,0.2549900579,2.862779827,2.887428793
20.13264817,-0.04478579812,0.1390386021,2.0249972,2.03025889
20.14263017,0.2398349521,0.0564624685,0.8349818105,0.8705764977
20.15261117,0.4554198197,0.04411548793,-0.2138139653,0.5050443547
20.16259317,0.6672801572,-0.004923940301,-0.9803330666,1.185892059
20.17257417,0.7795407774,-0.1095487547,-1.353628669,1.565884839
20.18255617,0.7262156325,-0.2357416087,-1.238788769,1.455184135
20.19253717,0.58971432,-0.4396006894,-0.7817581147,1.073385995
20.20251917,0.4481342987,-0.683986237,-0.2042537677,0.8428411023
20.21250017,0.323098901,-0.9384792817,0.1950233531,1.011518843
20.22248217,0.2778693357,-1.143132999,0.4207100898,1.249384409
20.23246317,0.3157412764,-1.237626343,0.5823499346,1.403760294
20.24244517,0.3991312328,-1.255583727,0.6878091466,1.486229342
20.25242617,0.4425111045,-1.160111559,0.7749332446,1.463624419
20.26240817,0.4147221755,-1.023954465,0.8780436301,1.411183137
20.27238917,0.3790291997,-0.9263585883,0.9035421681,1.348403433
20.28237017,0.2476713539,-0.8663959765,0.795082165,1.201723236
20.29235217,0.06575997993,-0.8787745321,0.5192467833,1.022832477
20.30233317,-0.09617997319,-0.9015125996,0.1680536556,0.9220724406
20.31231517,-0.1883460521,-0.9235226887,-0.2231391048,0.9685863163
20.32229617,-0.2322695321,-0.9717265499,-0.7274480063,1.235873062
20.33227817,-0.2107755328,-0.951664753,-1.198421931,1.544767702
20.34225917,-0.1138474084,-0.8762537974,-1.576853728,1.807553493
20.35224117,0.02820214435,-0.7855664063,-1.867481396,2.026177856
20.36222217,0.1533277354,-0.675206058,-2.049519837,2.163317864
20.37220417,0.2353510878,-0.5963622022,-2.059900399,2.157365909
20.38218517,0.2903914404,-0.5054526168,-1.830463259,1.921042758
20.39216717,0.2919429991,-0.4275700432,-1.41249142,1.504386542
20.40214817,0.2469609172,-0.402840414,-0.933906759,1.046638394
20.41213017,0.201632059,-0.4091659319,-0.5129160029,0.6864073667
20.42211117,0.1844575806,-0.3932416248,-0.206269303,0.4808436335
20.43209317,0.1186007196,-0.3410464543,-0.03984058857,0.3632713685
20.44207417,0.02827936415,-0.2732555902,0.08747726977,0.2883064563
20.45205617,-0.05363888461,-0.1452062452,0.1944105649,0.2485104652
20.46203717,-0.1200860951,-0.01806965053,0.2518530267,0.2796017339
20.47201817,-0.1180615698,0.08632010579,0.2421203363,0.2828638403
20.48199817,-0.1557914962,0.1865934223,0.2054319817,0.3182615193
20.49197917,-0.2186533768,0.2693935043,0.1471773416,0.3768863611
20.50196117,-0.2920415612,0.3201093292,0.0913528043,0.442835851
20.51194217,-0.3309545986,0.3680091351,0.1035506809,0.5056524631
20.52192417,-0.308029274,0.4383324283,0.1769496095,0.5642060933
20.53190517,-0.2792013314,0.5106121999,0.3780148906,0.6939549406
20.54188717,-0.213597728,0.5963417369,0.6469353551,0.9054130606
20.55186817,-0.2340294344,0.7087784314,0.9173415971,1.18264629
20.56185017,-0.2662462039,0.8155339712,1.087604915,1.385231804
20.57183117,-0.2604374702,0.902620647,1.048956574,1.408141187
20.58181317,-0.2593004426,0.9571681523,0.7858248532,1.26527795
20.59179417,-0.2274598318,1.04001969,0.4049337173,1.139012838
20.60177617,-0.1622743408,1.128740078,-0.06545314729,1.142222062
20.61175717,0.01202341028,1.154377195,-0.4854750198,1.252364669
20.62173917,0.2297428406,1.155375899,-0.6927500439,1.366593526
20.63172017,0.4206003083,1.102501867,-0.659445473,1.351770438
20.64170217,0.5056135614,0.9873479712,-0.2400282025,1.134951377
20.65168317,0.307907652,0.8803696525,0.5529840481,1.084273584
20.66166417,-0.03617445745,0.664519102,1.433537888,1.580482554
20.67164617,-0.3333501298,0.3629846227,2.131386704,2.187621866
20.68162717,-0.5231117197,0.1285568833,2.527049661,2.583825213
20.69160917,-0.5793098941,0.03202110708,2.722564765,2.783699733
20.70159017,-0.3787824107,0.04029784083,2.57719889,2.605197526
20.71157217,0.0911906537,0.04464173734,2.010013125,2.012575808
20.72155317,0.6391159467,0.006271138787,1.078663938,1.253803977
20.73153517,1.027307478,-0.05901477814,0.2447767264,1.057714065
20.74151617,1.381379847,-0.1739733768,-0.2152137887,1.408827169
20.75149817,1.633463985,-0.348960076,-0.3063338739,1.698180841
20.76147917,1.76952884,-0.5542909008,-0.2547362888,1.871726821
20.77146117,1.730591938,-0.7354388112,-0.146859253,1.886103481
20.78144217,1.530282995,-0.8685383964,-0.08381106555,1.761575796
20.79142417,1.279926563,-0.9952855664,-0.03275142431,1.621689866
20.80140517,0.9411045353,-1.010312326,0.05400605321,1.381783411
20.81138617,0.6299182034,-0.9924818265,0.1516457838,1.185248313
20.82136817,0.4705305599,-0.9644017428,0.1684647149,1.086209045
20.83134917,0.3458239219,-0.8997356308,0.06535257518,0.9661207736
20.84133117,0.3131269863,-0.8312033397,-0.197451117,0.9099090312
20.85131217,0.3781750677,-0.7589130431,-0.5364720958,1.003378143
20.86129417,0.4023540719,-0.6606254411,-0.8273096788,1.13258822
20.87127517,0.3589340737,-0.564265666,-0.9862709141,1.191620631
20.88125717,0.2696360541,-0.5151122171,-0.9672791576,1.128571294
20.89123817,0.1633319193,-0.5169996983,-0.8675853002,1.023069038
20.90122017,0.04958084386,-0.5564227957,-0.7847302544,0.9632580961
20.91120117,-0.01974728979,-0.6133366692,-0.7360252869,0.9582823426
20.92118317,0.01085842565,-0.6221302968,-0.7288384742,0.9583159881
20.93116417,0.1045833357,-0.6096184248,-0.7678037345,0.9859487171
20.94114617,0.1974114656,-0.5490658289,-0.833258636,1.017233762
20.95112717,0.2591176075,-0.413355462,-0.849643119,0.9797438962
20.96110917,0.264445298,-0.2606039697,-0.8044505739,0.8859946222
20.97109017,0.2208627472,-0.1288428122,-0.7195951957,0.7636740594
20.98107217,0.1460524469,-0.05218464553,-0.6246486926,0.643615214
20.99105317,0.06793097802,-0.01168390632,-0.5376146418,0.5420153453
21.00103417,-0.01937796503,0.005347863436,-0.4247394061,0.4252148495
21.01101617,-0.08356270507,0.01878885806,-0.3245005882,0.3356134363
21.02099717,-0.110826152,0.03147907019,-0.2241816634,0.2520531413
21.03097917,-0.1061359542,0.09523301661,-0.1168320465,0.184347214
21.04096017,-0.05369969565,0.178086893,-0.05216768861,0.1931840224
21.05094217,0.03214901492,0.2630399197,-0.05524975598,0.2706955745
21.06092317,0.1189772438,0.3755491197,-0.1190469718,0.4115396789
21.07090517,0.224926087,0.4626357955,-0.213476581,0.556952309
21.08088617,0.293015415,0.5532079965,-0.199687677,0.6570938207
21.09086817,0.350652114,0.6269267678,-0.08373972952,0.7231918276
21.10084917,0.3257949059,0.6905245936,0.09942137718,0.7699682755
21.11083117,0.2755498549,0.6918308616,0.293071804,0.800280417
21.12081217,0.1940891508,0.6611446738,0.4966432017,0.8493746806
21.13079417,0.09800434101,0.6591449261,0.6636385113,0.9404748578
21.14077517,0.01062073633,0.6865461481,0.7645082438,1.027585164
21.15075717,-0.07436028399,0.7302833211,0.7942805117,1.081538123
21.16073817,-0.1274555603,0.7943033159,0.7267948723,1.084155646
21.17072017,-0.1871510639,0.8527474058,0.5236561686,1.018046876
21.18070117,-0.2048979847,0.8420575261,0.2512805843,0.9023225551
21.19068217,-0.1415787057,0.7893676811,0.09299411774,0.8073374585
21.20066417,-0.1018745034,0.7781030202,0.356639809,0.8619829916
21.21064517,-0.0650893043,0.7813400388,1.179801473,1.416566408
21.22062717,-0.06710410863,0.7214078325,2.160174885,2.278439764
21.23060817,-0.2952509151,0.5787848872,2.802340082,2.876677768
21.24059017,-0.6581123078,0.4043460721,3.008197156,3.105778113
21.25057117,-0.9132092967,0.1291521299,2.770908374,2.920370646
21.26055317,-0.9850848064,-0.16964059,2.145061587,2.366528939
21.27053417,-0.9515551177,-0.4051325226,1.182632695,1.571053657
21.28051617,-0.8288201608,-0.5243326914,0.1510569692,0.992313377
21.29049717,-0.6756479613,-0.5826294315,-0.6398023367,1.097863494
21.30047917,-0.4807377153,-0.5655766118,-1.016475876,1.258653591
21.31046017,-0.300521705,-0.4749517858,-0.9081000727,1.067959848
21.32044217,-0.1854645077,-0.3343040299,-0.4562985831,0.5952853644
21.33042317,-0.1774322241,-0.3216845691,-0.04783665597,0.3704746979
21.34040417,-0.2619836568,-0.4194500148,0.126770559,0.5105335699
21.35038617,-0.3621053477,-0.5995980513,0.1467475712,0.715662599
21.36036717,-0.4961567134,-0.744284479,0.2539217716,0.9298425329
21.37034917,-0.5424852628,-0.7887794513,0.4857018918,1.073484798
21.38033017,-0.5521231187,-0.7267410779,0.7377069461,1.173543383
21.39031217,-0.5483690966,-0.5839696133,0.9189244384,1.219078053
21.40029317,-0.4810860997,-0.5248946089,0.9049981248,1.151511959
21.41027517,-0.4231136609,-0.5517783523,0.7034790999,0.9891245442
21.42025617,-0.436176633,-0.6046839595,0.4021445954,0.8471204292
21.43023817,-0.4130252039,-0.7222790676,0.08263811409,0.8361255459
21.44021917,-0.4252400739,-0.7564975584,-0.1332592142,0.8779952702
21.45020117,-0.4237583895,-0.6083010471,-0.2681720209,0.7883638559
21.46018217,-0.3034452762,-0.5011326939,-0.39362988,0.7058027309
21.47016417,-0.1341330805,-0.4233512771,-0.5734528112,0.7253041526
21.480145,0.0442118939,-0.2944195873,-0.7616635734,0.8177829687
21.490127,0.1421797995,-0.1957887536,-0.9539592004,0.9841679163
21.500108,0.2475116153,-0.1700990117,-1.076750144,1.117849072
21.51009,0.2580983647,-0.1178564787,-1.12603691,1.161233843
21.520071,0.1938185709,-0.0898804754,-1.043902826,1.065540824
21.530052,0.06287606008,-0.1181909394,-0.8690523666,0.8793034249
21.540034,-0.06877644885,-0.1654621696,-0.6224115479,0.6476913342
21.550015,-0.2120284815,-0.2182888395,-0.3867535543,0.4921223488
21.559997,-0.3343774125,-0.2834730148,-0.2358994836,0.4978089699
21.569978,-0.4094826318,-0.3323773724,-0.2088379848,0.5672424942
21.57996,-0.5080845948,-0.3049480838,-0.2214855123,0.6326129317
21.589941,-0.5881331232,-0.2154552788,-0.2228467441,0.6648174329
21.599923,-0.5843410211,-0.1439929479,-0.1895334023,0.6309606237
21.609904,-0.5762759931,-0.0934297353,-0.1641091239,0.6064280174
21.619886,-0.5312344524,-0.0421163249,-0.1279195368,0.5480394476
21.629867,-0.4691350488,0.01887247324,-0.07819949269,0.4759821687
21.639849,-0.4284146004,0.1144691867,0.05605784118,0.4469728695
21.64983,-0.4199314234,0.1956069052,0.3062718934,0.5553439785
21.659812,-0.4092695373,0.2950323755,0.627174105,0.8049180174
21.669793,-0.406391757,0.372772277,0.9140905452,1.067555598
21.679775,-0.3559243291,0.4783729917,1.162791338,1.306754201
21.689756,-0.3095091678,0.5619045603,1.27482282,1.427132048
21.699738,-0.2172552527,0.6675228167,1.24918278,1.432914573
21.709719,-0.0008885940537,0.8355127376,1.080387112,1.365766685
21.719701,0.2337139588,0.9192448658,0.6307181025,1.139051651
21.729682,0.5252513621,0.9359755039,-0.03254852593,1.073777698
21.739663,0.739205149,0.8863262111,-0.6041922086,1.302707423
21.749645,0.7415912515,0.8518861109,-0.6720333588,1.314266474
21.759626,0.3894404596,0.8966371912,0.01844913483,0.9777333454
21.769608,-0.2169420795,0.8924599403,1.290873427,1.584267281
21.779589,-0.7317554308,0.6070678693,2.478314872,2.654438173
21.789571,-1.259187804,0.2529593199,3.158885166,3.409999683
21.799552,-1.60247535,-0.03342677772,3.314970741,3.682129222
21.809534,-1.549791645,-0.2570868695,2.954330851,3.346045215
21.819515,-1.118330206,-0.4069094914,2.016063239,2.341099906
21.829497,-0.4796507545,-0.4022024828,0.7985688597,1.014664431
21.839478,0.07064711932,-0.3037798101,-0.1380591935,0.3410770139
21.84946,0.4753206355,-0.1905408776,-0.518655045,0.7288611584
21.859441,0.7274336806,-0.1694411999,-0.4248160046,0.8592663834
21.869423,0.7838005471,-0.2926741934,-0.005090585947,0.8366763981
21.879404,0.6231480047,-0.5390384388,0.5362651044,0.9830850098
21.889386,0.3543901659,-0.8709451103,1.020817434,1.387878239
21.899367,0.1175446211,-1.173667744,1.261050873,1.726720017
21.909348,-0.06295033799,-1.305907204,1.261788792,1.816994035
21.91933,-0.161448586,-1.252928506,1.057027486,1.647180195
21.929311,-0.2025122842,-1.07778744,0.6495385355,1.27457338
21.939293,-0.1933155276,-0.8220050848,0.06933686793,0.8472725971
21.949274,-0.1154100402,-0.6170677775,-0.5509153032,0.8352243955
21.959256,-0.0867490356,-0.5024225897,-1.053111021,1.170041314
21.969237,-0.1846059902,-0.4474856597,-1.328656381,1.414090013
21.979219,-0.3775438242,-0.487845481,-1.450501245,1.576225369
21.9892,-0.5340821926,-0.5734054488,-1.455630423,1.653147763
21.999182,-0.6586303711,-0.6804849243,-1.426036495,1.711850982
22.009163,-0.7665568158,-0.7446639633,-1.357394861,1.727615287
22.019145,-0.8013987659,-0.7185561454,-1.311246296,1.696446216
22.029126,-0.8070234219,-0.6307373983,-1.292141688,1.648862217
22.039108,-0.8189412168,-0.5085574883,-1.221569889,1.556126097
22.049089,-0.801578787,-0.3962459242,-1.075760211,1.398856467
22.059071,-0.8049269758,-0.3412967151,-0.9113224733,1.262893319
22.069052,-0.8337471709,-0.3479607868,-0.7363141394,1.165491126
22.079034,-0.8898379026,-0.3654088783,-0.5150087214,1.091132038
22.089015,-0.9394111817,-0.3617023283,-0.3059959048,1.052119497
22.098996,-1.060613291,-0.3275206751,-0.1220185268,1.116717899
22.108978,-1.206138648,-0.2811937702,0.08660077214,1.241507176
22.118959,-1.279721325,-0.2661249107,0.2690444255,1.334501421
22.128941,-1.324151393,-0.2448527402,0.4109867549,1.407920413
22.138922,-1.235029156,-0.2538872731,0.4490421885,1.33842992
22.148904,-1.01833646,-0.2491212076,0.4333020687,1.134381419
22.158885,-0.735539968,-0.1569825375,0.4167842692,0.8598672506
22.168867,-0.4916468656,-0.02967052639,0.4406911951,0.6609127855
22.178848,-0.3172606388,0.07127814353,0.4886284232,0.5869349391
22.18883,-0.2287202722,0.1416564006,0.5472783351,0.6098303656
22.198811,-0.2462833163,0.1610855287,0.6283178204,0.6938208003
22.208793,-0.329933419,0.118122527,0.6635975808,0.7504470278
22.218774,-0.4339736945,0.05694310963,0.6086033481,0.749649065
22.228756,-0.5612627188,0.01882978857,0.4684011501,0.7312797261
22.238737,-0.6591638564,-0.03460440695,0.2948949659,0.7229505485
22.248719,-0.7116562848,-0.08844147563,0.1765262711,0.7385378031
22.2587,-0.7311326292,-0.08404378474,0.1301672065,0.747369909
22.268682,-0.7493836165,-0.03071133077,0.1638430756,0.7677001654
22.278663,-0.7359951738,0.04941365004,0.2671984595,0.7845544094
22.288644,-0.6985013652,0.1305367506,0.4211936545,0.8260436399
22.298626,-0.6297729,0.1436695969,0.6720573324,0.9321565945
22.308607,-0.6246934969,0.1534268457,1.185664476,1.348918831
22.318589,-0.6592905217,0.1862870282,1.901166621,2.020841748
22.32857,-0.6847678636,0.1869775844,2.507538671,2.606073259
22.338552,-0.6774114816,0.1783927023,2.817511268,2.903287794
22.348533,-0.5537874556,0.1665339643,2.683243994,2.744851988
22.358515,-0.2334038919,0.1219828588,2.084140032,2.100713419
22.368496,0.1731898499,0.08838124931,1.195597141,1.21130446
22.378478,0.4569753984,0.1333077461,0.3181025648,0.5725266034
22.388459,0.6484933457,0.1898374575,-0.2517641491,0.7210874194
22.398441,0.7148481336,0.1637074202,-0.4261854225,0.8481992619
22.408422,0.5841621329,0.082424106,-0.2123767197,0.6270111656
22.418404,0.2715579242,-0.1064900762,0.2279706591,0.3702086762
22.428385,-0.06977358185,-0.4819953418,0.5275925142,0.718012342
22.438367,-0.3943661906,-0.8815794414,0.5801999134,1.126649432
22.448348,-0.628073553,-1.141033849,0.5037697881,1.396502285
22.45833,-0.8219075093,-1.2641651,0.5038019478,1.589799282
22.468311,-0.9524846788,-1.299884571,0.5062952006,1.689160085
22.47829337,-0.9651051629,-1.183274134,0.5658613712,1.628424006
22.48827437,-0.9542707108,-1.101037724,0.5653608495,1.562865813
22.49825538,-0.8211106069,-1.055156962,0.4937014675,1.425243832
22.50823737,-0.6671014517,-1.01657177,0.3171178937,1.256585162
22.51821838,-0.4710321779,-0.9955071759,0.03066513777,1.101746886
22.52820037,-0.3741731968,-0.9135771596,-0.2748881328,1.024788902
22.53818137,-0.2920141158,-0.791268611,-0.5036645383,0.9823727529
22.54816337,-0.153341184,-0.6747242475,-0.6192142904,0.9285433034
22.55814437,-0.01643886209,-0.5683897072,-0.6755773562,0.8830299314
22.56812638,0.1248363183,-0.4753821409,-0.7423408645,0.8903045801
22.57810737,0.2632030936,-0.4241529304,-0.8589670891,0.9934817748
22.58808937,0.337572258,-0.3711859274,-1.025017489,1.141225164
22.59807037,0.3398279677,-0.3186422628,-1.141437306,1.232840243
22.60805237,0.2992778926,-0.2687315995,-1.150254323,1.218551984
22.61803337,0.1884787473,-0.2305089355,-1.045224881,1.086808934
22.62801537,-0.01103011452,-0.2347259474,-0.7568916607,0.7925294441
22.63799638,-0.1574640192,-0.3184832186,-0.4242248511,0.5533472708
22.64797837,-0.3018159496,-0.4002740711,-0.2105477107,0.5437302069
22.65795937,-0.4009292516,-0.4117854846,-0.1029513413,0.5838754394
22.66794137,-0.4319646643,-0.3204999232,-0.05724658012,0.5409166691
22.67792237,-0.4447551927,-0.1785230953,-0.05247992992,0.4821118335
22.68790438,-0.4624077175,-0.02897353828,-0.07930520117,0.470052846
22.69788537,-0.4366966698,0.08451740921,-0.07087585509,0.4504115459
22.70786637,-0.3842974314,0.1526784021,0.02506467462,0.4142746048
22.71784837,-0.3285758051,0.211996066,0.1780921555,0.4296757004
22.72782937,-0.2963960192,0.2679773086,0.2962234533,0.4974040334
22.73781137,-0.3456968911,0.3307693881,0.420506022,0.6369772705
22.74779237,-0.387925848,0.3581682712,0.5420561868,0.7567006566
22.75777438,-0.4285294982,0.3668654197,0.7522021937,0.940231837
22.76775537,-0.4525209164,0.3754655045,1.047372563,1.201140629
22.77773737,-0.3884251271,0.3250432098,1.181863786,1.285818485
22.78771837,-0.2853550508,0.3316376996,1.127827912,1.209713548
22.79770037,-0.2136568214,0.4574101388,1.03023262,1.147280491
22.80768138,-0.1580905118,0.6302064711,0.9631176943,1.16178677
22.81766337,-0.1138298667,0.8295526707,0.9288237745,1.250531278
22.82764438,-0.01699350704,0.9839665264,0.8808953172,1.320778355
22.83762637,0.2125650731,1.089530404,0.907612415,1.433883087
22.84760737,0.4974735794,1.189696131,1.11270175,1.703221075
22.85758937,0.7226777016,1.280818555,1.470652505,2.0798024
22.86757037,0.9464681862,1.319592027,1.889666902,2.491579047
22.87755238,1.284527737,1.30728013,2.268147815,2.916073963
22.88753337,1.614538741,1.215744308,2.434402868,3.164030166
22.89751437,1.895252016,1.031673374,2.336096554,3.180200822
22.90749637,2.025753537,0.8460505897,2.006313592,2.974016345
22.91747737,1.868294013,0.6187997228,1.407825342,2.419794993
22.92745937,1.586508066,0.32364631,0.5971720415,1.725795244
22.93744037,1.300862811,0.0191262424,-0.2212182945,1.319677006
22.94742238,1.148281399,-0.319968996,-0.8906280077,1.488001538
22.95740337,1.011061939,-0.6978768826,-1.373275899,1.842597374
22.96738537,0.8940928484,-1.034772983,-1.560730616,2.075099324
22.97736637,0.7982624656,-1.264403082,-1.384644055,2.037934562
22.98734837,0.7828015503,-1.411895589,-0.8863092542,1.841676278
22.99732938,0.8321580438,-1.443088145,-0.3045797092,1.693445955
23.00731137,0.9236603907,-1.410903316,0.1832973468,1.696288478
23.01729237,1.062614354,-1.355204494,0.5090697044,1.795795214
23.02727437,1.225814748,-1.246757355,0.6427399778,1.86283128
23.03725537,1.424830799,-1.093764372,0.6001371646,1.893839467
23.04723737,1.580902779,-0.8785108227,0.4507256019,1.863917496
23.05721837,1.580207984,-0.6473657101,0.2958170718,1.733103394
23.06720038,1.495980012,-0.4596636558,0.1601920742,1.573184151
23.07718137,1.329152956,-0.3530478644,-0.01986006796,1.375385326
23.08716337,1.170551763,-0.326004492,-0.1737406576,1.227459235
23.09714437,1.031606131,-0.3042657137,-0.1983603591,1.093679874
23.10712537,0.9636305682,-0.2897944397,-0.2082661271,1.027589154
23.11710738,0.8778261868,-0.2695449471,-0.2902686489,0.9630623974
23.12708837,0.7305088775,-0.2086298239,-0.4001933795,0.8586759369
23.13707037,0.6148292441,-0.1508605027,-0.5080084348,0.8116935755
23.14705137,0.5475897724,-0.09864954472,-0.6272705841,0.8384835581
23.15703337,0.5481522015,-0.03088967085,-0.7432062525,0.9240024575
23.16701437,0.6828499769,-0.01577988088,-0.9344353473,1.157455189
23.17699637,0.6611166803,0.1205052674,-0.8675782835,1.097400958
23.18697738,0.6216658086,0.1730103403,-0.7659519213,1.001540464
23.19695937,0.5633913611,0.1249450582,-0.5861664122,0.8225643781
23.20694037,0.4619945021,0.04473938584,-0.3782873708,0.5987836567
23.21692237,0.3733021078,-0.07685814142,-0.1421732944,0.4067860411
23.22690337,0.3779024047,-0.1432310557,0.1093020022,0.4186553362
23.23688538,0.3851729058,-0.1458517778,0.3063379669,0.5132970469
23.24686637,0.3342543286,-0.08965418816,0.4063569295,0.5337506757
23.25684838,0.3287601386,-0.1093651521,0.333264395,0.4807381015
23.26682937,0.3264734387,-0.1606832403,0.1713748741,0.4022105884
23.27681137,0.3480237906,-0.1851251864,0.02238664985,0.3948329464
23.28679237,0.4312548123,-0.1696785969,-0.04712271094,0.4658240969
23.29677337,0.4856633002,-0.1205947298,-0.156828171,0.5244111032
23.30675538,0.5193622658,-0.01399589539,-0.2439686412,0.5739806147
23.31673637,0.4805480097,0.1098832154,-0.1339164412,0.5108173097
23.32671837,0.4756082819,0.1029852551,0.223850711,0.5356475907
23.33669937,0.524920629,-0.007632955313,0.6612446612,0.8443011493
23.34668137,0.5739507017,-0.04652687967,0.9642327583,1.123089031
23.35666238,0.4280581395,-0.08027408481,1.024858444,1.113558499
23.36664437,0.1319903684,-0.1293363172,0.97135876,0.9887806536
23.37662538,-0.02009644166,-0.1717853487,0.8924476612,0.9090527492
23.38660737,-0.108869893,-0.1688102853,0.6730344021,0.7023708938
23.39658837,-0.05213830635,-0.1397543013,0.456460551,0.4802144337
23.40657037,-0.06750288874,-0.04742968976,0.240640406,0.2543895054
23.41655137,0.009083649516,0.1374013817,-0.003237018585,0.1377393578
23.42653338,0.1577613866,0.4198540574,-0.1606212598,0.4764087255
23.43651437,0.4838386765,0.7456603289,-0.1205730951,0.8970212161
23.44649637,0.8308801349,0.9287945384,0.04362315238,1.246965947
23.45647737,1.142815203,1.029102353,0.5417404372,1.630509412
23.46645937,1.276330671,1.027497877,1.537707204,2.24706816
23.4764405,1.324827478,0.9594766331,2.647937336,3.112448456
23.4864225,1.315749675,0.7221820039,3.307854095,3.632443085
23.4964035,1.249646172,0.4779899991,3.213683517,3.481070488
23.5063845,1.16677088,0.2068288815,2.147518587,2.452747144
23.5163665,1.161339109,-0.04522704363,0.5764091635,1.29730549
23.5263475,1.122055102,-0.06421470702,-0.5561625946,1.253972891
23.5363295,1.055703238,-0.06079291642,-1.005647417,1.459291552
23.5463105,0.86829983,-0.130913896,-0.9589989156,1.30029303
23.5562925,0.5968690096,-0.3016134167,-0.5498189503,0.8657506257
23.5662735,0.337759442,-0.6465517777,-0.185756101,0.7527389793
23.5762555,0.08840010658,-1.045158223,0.0498276329,1.050072894
23.5862365,-0.1323831551,-1.430742919,0.2876607907,1.46536662
23.5962185,-0.338728618,-1.66608107,0.5214658016,1.778339054
23.6061995,-0.5400695953,-1.713646415,0.697945295,1.927533875
23.6161815,-0.5958362451,-1.636829204,0.737293548,1.891515913
23.6261625,-0.5108668461,-1.452913222,0.6243341124,1.661846819
23.6361445,-0.3139883177,-1.193074068,0.4434288615,1.310970461
23.6461255,-0.06349930018,-0.9414981991,0.2282630199,0.9708527315
23.6561075,0.1018982577,-0.7402007836,-0.02309591711,0.7475385451
23.6660885,0.08322532073,-0.6008364916,-0.2273999709,0.647797569
23.6760705,-0.05728648737,-0.5170154858,-0.3347624516,0.6185892443
23.6860515,-0.1368208994,-0.5067758417,-0.3852753782,0.6511365673
23.6960325,-0.1765775804,-0.5069424874,-0.4782718349,0.7189675065
23.7060145,-0.1963746446,-0.4420255297,-0.5737814248,0.7504496608
23.7159955,-0.1930046019,-0.3227277124,-0.6478118527,0.7490421545
23.7259775,-0.1904078534,-0.1949502629,-0.6719842422,0.725136937
23.7359585,-0.2240207188,-0.07544369996,-0.6363530642,0.6788389033
23.7459405,-0.2445662266,0.03765314519,-0.5025108826,0.5601317574
23.7559215,-0.213828291,0.1188709706,-0.3379901147,0.4172411333
23.7659035,-0.2506553708,0.1955770844,-0.1428726214,0.3485557299
23.7758845,-0.296529555,0.2554473102,0.01215986967,0.3915749835
23.7858665,-0.3941998373,0.3588699371,0.07698853433,0.5386170976
23.7958475,-0.4906465166,0.4500490791,0.08985182405,0.6718270076
23.8058295,-0.5303496225,0.4789454341,0.06932575822,0.7179592688
23.8158105,-0.4979688386,0.5023886758,0.07872515738,0.7117337959
23.8257925,-0.4527868916,0.5436863905,0.1328183341,0.7198969165
23.8357735,-0.3146990468,0.5826633453,0.1758199275,0.6851603542
23.8457555,-0.1130997688,0.6344123733,0.1897187591,0.671761732
23.8557365,0.009657699913,0.6938744634,0.2266439259,0.7300154186
23.8657185,0.08383876674,0.6985341096,0.2816761655,0.7578392331
23.8756995,0.1013500082,0.6552319694,0.3412224555,0.7456765532
23.8856815,0.1255462251,0.6173338258,0.433230148,0.7645595256
23.8956625,0.1388651591,0.5414469069,0.5612882638,0.7921444316
23.9056435,0.2264829082,0.4815439367,0.6957502502,0.8759266416
23.9156255,0.3783752252,0.4331482869,0.7899237514,0.9771206591
23.9256065,0.499920493,0.4052190614,0.8322780579,1.052050262
23.9355885,0.7023660093,0.428483963,0.8878663677,1.210464045
23.9455695,0.9137007552,0.4702541327,0.9609197259,1.406895426
23.9555515,1.074697552,0.5477969831,1.007592201,1.571718298
23.9655325,1.16117853,0.5656765991,0.9213106871,1.586549392
23.9755145,1.22189799,0.5154209501,0.6694559062,1.485551973
23.9854955,1.272294777,0.425359211,0.2356568241,1.362056752
23.9954775,1.350322654,0.3481467283,-0.1967640692,1.40829454
24.0054585,1.362337366,0.3407464921,-0.4180817664,1.465217948
24.0154405,1.327310206,0.4081701511,-0.2584013236,1.412489468
24.0254215,1.048340643,0.487646091,0.3328919274,1.203176566
24.0354035,0.7966897108,0.5857547683,1.273460419,1.612304122
24.0453845,0.5015710889,0.5882819349,2.106536622,2.24391304
24.0553665,0.2079914542,0.4618668866,2.50369939,2.554425982
24.0653475,0.03789375812,0.2765510809,2.434484729,2.450435131
24.0753295,0.02286396537,0.06768912256,1.956512271,1.957816346
24.0853105,0.1457721826,-0.1084395379,1.191113496,1.204890046
24.0952925,0.3183526429,-0.1625034785,0.3508896571,0.5008785654
24.1052735,0.5388567366,-0.1685939384,-0.3044504857,0.6414675337
24.1152545,0.7501534756,-0.2472957069,-0.8220758361,1.140041264
24.1252365,1.009603497,-0.4045776218,-1.17276201,1.599485232
24.1352175,1.257713575,-0.5787199831,-1.237953202,1.857225992
24.1451995,1.412985217,-0.7508175731,-1.046943378,1.912157077
24.1551805,1.433308385,-0.7989816731,-0.5991916698,1.746933112
24.1651625,1.29541496,-0.8049855942,-0.06373406589,1.526487391
24.1751435,1.172161063,-0.840291667,0.3895339054,1.493917101
24.1851255,1.025623406,-0.8485777563,0.6902521133,1.499478429
24.1951065,0.9461246623,-0.8055890268,0.7986822957,1.477165856
24.2050885,0.9339674239,-0.7739357096,0.6338785225,1.368602796
24.2150695,0.9465585257,-0.7010811567,0.2967192972,1.214714029
24.2250515,0.9548840837,-0.5958464777,-0.1031086314,1.130251312
24.2350325,0.8936385928,-0.4731268698,-0.4266900373,1.097498682
24.2450145,0.831120894,-0.3514504051,-0.6221642107,1.096069173
24.2549955,0.8620848244,-0.3292853647,-0.7664495194,1.199609921
24.2649775,0.9132636027,-0.377358833,-0.8716578859,1.317663677
24.2749585,0.8560923055,-0.4148465019,-0.9319017488,1.331702867
24.2849405,0.7733754002,-0.4940166324,-0.9701144725,1.335396582
24.2949215,0.6344506726,-0.4699845761,-1.020367198,1.290179203
24.3049035,0.4975357792,-0.3993233138,-1.051446319,1.229853781
24.3148845,0.489031808,-0.2983389759,-0.9970385617,1.149888754
24.3248665,0.5695201202,-0.1631034029,-0.9271602416,1.100264514
24.3348475,0.638079747,-0.0263738662,-0.8395549178,1.054843024
24.3448285,0.6277876242,0.1055293787,-0.6888569677,0.9379646436
24.3548105,0.537400853,0.194603523,-0.5038042867,0.7618982657
24.3647915,0.3994686902,0.2925929171,-0.2804809946,0.5690829798
24.3747735,0.2183696041,0.3058994257,-0.09625510991,0.3879752426
24.3847545,0.1133691061,0.2526850855,-0.02776374936,0.2783399584
24.3947365,0.06814293958,0.1718052292,-0.02067633927,0.1859785149
24.4047175,0.09205695525,0.1229657757,0.01568340182,0.1544054212
24.4146995,0.1168009101,0.1365552896,0.09080199659,0.2013325664
24.4246805,0.0331145364,0.1587361175,0.181803968,0.2436111867
24.4346625,0.03605597824,0.1896257883,0.2652782339,0.3280708986
24.4446435,0.09574508652,0.2057611799,0.1816770834,0.2907083545
24.4546255,0.11829999,0.2646327013,0.01005487204,0.2900456079
24.4646065,0.1756391023,0.3644189447,-0.01452272952,0.4047976917
24.4745885,0.1338534375,0.4559945279,0.190520997,0.5120019556
24.4845695,0.1485481482,0.4926431215,0.552545507,0.7550300224
24.4945515,0.1978001227,0.4983991206,0.8026028538,0.9652450014
24.5045325,0.1858479754,0.478361882,0.8227149367,0.9696542823
24.5145145,0.1489476592,0.4743425059,0.6148663008,0.7907254808
24.5244955,0.1060637411,0.486680131,0.2819609249,0.5723714093
24.5344765,0.05644302651,0.550369758,-0.003704795837,0.5532688418
24.5444585,-0.02510553204,0.6324202269,-0.1338965607,0.6469265183
24.5544395,-0.0966331324,0.6693641049,-0.1072507989,0.6847547014
24.5644215,-0.221427771,0.6388749683,0.048699705,0.6779108674
24.5744025,-0.3660671286,0.5764302135,0.3454330355,0.7652456571
24.5843845,-0.4665233168,0.5516345108,0.8215063173,1.093991439
24.5943655,-0.5625419068,0.5388326168,1.334661471,1.545352785
24.6043475,-0.5164358805,0.475178073,1.709369761,1.847821745
24.6143285,-0.3674735302,0.4176911724,1.894160487,1.974169866
24.6243105,-0.2349514306,0.379131124,1.876415942,1.92869888
24.6342915,-0.1481697603,0.2782385874,1.603871958,1.634556896
24.6442735,0.0327507665,0.1578660518,1.181621127,1.192569826
24.6542545,0.06873467781,-0.01771823287,0.6734109628,0.6771415779
24.6642365,0.1171059155,-0.1862677324,0.02605987072,0.2215594287
24.6742175,-0.0117332422,-0.2772498232,-0.4113241392,0.4961780738
24.6841995,-0.1006976051,-0.3452909482,-0.432335524,0.5623876348
24.6941805,-0.224162733,-0.380586496,-0.1300186872,0.4604344371
24.7041625,-0.4306969149,-0.4326050806,0.2962942046,0.6785552622
24.7141435,-0.6962276023,-0.5497768503,0.6777226996,1.116376064
24.7241255,-0.9399384543,-0.6602985817,0.9213346606,1.472527104
24.7341065,-1.089872027,-0.6953280813,1.101494976,1.698409067
24.7440885,-1.153788526,-0.6534608477,1.270989386,1.83675068
24.7540695,-1.163384538,-0.556302343,1.393755187,1.898812629
24.7640505,-1.136152008,-0.4904919308,1.245819461,1.755986859
24.7740325,-1.03736118,-0.364716568,0.9606273651,1.460116888
24.7840135,-0.9413185434,-0.2540971881,0.6017018795,1.145727338
24.7939955,-0.8657291016,-0.1718894291,0.2009588617,0.9052167239
24.8039765,-0.850214465,-0.1269816434,-0.1808093566,0.8784537539
24.8139585,-0.889609642,-0.1156877464,-0.4120369148,0.9871997715
24.8239395,-0.9092866921,-0.1357074434,-0.465776335,1.03061457
24.8339215,-0.868887402,-0.1372990555,-0.4462688541,0.9863935514
24.8439025,-0.757162533,-0.07883742392,-0.4833478028,0.9017402836
24.8538845,-0.6300942045,-0.01305157006,-0.5879930824,0.8619309224
24.8638655,-0.4959842936,0.08733401299,-0.7043743086,0.8658930742
24.8738475,-0.31453474,0.2054933774,-0.805317716,0.8886485551
24.8838285,-0.163712902,0.3074729115,-0.8805526704,0.94695011
24.8938105,-0.1016430268,0.3629015923,-0.9029662174,0.9784563661
24.9037915,-0.149893154,0.3814752728,-0.8047160375,0.9030831869
24.9137735,-0.2738173249,0.3610503638,-0.6185231495,0.7667490979
24.9237545,-0.4732274419,0.3122781533,-0.4058493912,0.697262924
24.9337365,-0.7265890503,0.1542109573,-0.2490966493,0.783429517
24.9437175,-1.004879093,-0.06083560109,-0.1031021994,1.011984696
24.9536995,-1.207089551,-0.2760067052,0.01474550843,1.238330455
24.9636805,-1.371035246,-0.4242078942,0.1146884573,1.439737276
24.9736615,-1.462328116,-0.4995410818,0.1337030178,1.55107102
24.9836435,-1.458589114,-0.5130335319,0.05891362131,1.547306183
24.9936245,-1.368542139,-0.4992750335,-0.1503032631,1.464504768
25.0036065,-1.192442495,-0.4191886443,-0.3750228703,1.318438614
30.01430975,0.04775479496,0.4834980762,0.2230502272,0.5346048204
30.02429075,-0.00894675158,0.5721061975,0.3173728323,0.6543019641
30.03427275,-0.07827240016,0.5823820943,0.4390925664,0.7335514666
30.04425375,-0.1186846637,0.5563152069,0.5654666841,0.802075576
30.05423575,-0.1460289119,0.4828724241,0.6447941047,0.8186877662
30.06421675,-0.1275103779,0.4411496168,0.7158623332,0.8504885425
30.07419875,-0.05927483305,0.4253194499,0.7152454519,0.8342578719
30.08417975,0.006280019246,0.4289686972,0.6682203895,0.7940856822
30.09416175,0.09637373529,0.4665312105,0.5920621598,0.759918988
30.10414275,0.1510360288,0.5321697146,0.5138802087,0.7550426187
30.11412475,0.1731140188,0.591532402,0.435531612,0.754696516
30.12410575,0.1574754578,0.6132244027,0.344142555,0.7206086219
30.13408775,0.1343217263,0.6354870915,0.2515489715,0.6965364705
30.14406875,0.1117355403,0.664605056,0.1295321989,0.6862676606
30.15405075,0.1068977733,0.6918051338,-0.02043017149,0.7003134077
30.16403175,0.1369243951,0.714123956,-0.2111780405,0.7571773103
30.17401375,0.1928354346,0.7570980674,-0.4244569856,0.8891269432
30.18399475,0.3084952606,0.7712307876,-0.6239517045,1.038884971
30.19397675,0.380286278,0.6457816994,-0.6987656593,1.02465853
30.20395775,0.3184650556,0.4739741313,-0.4188547683,0.7081742623
30.21393875,0.1476097066,0.3024940073,0.3694083738,0.499753736
30.22392075,-0.1278461177,0.1136897528,1.37622465,1.38681804
30.23390175,-0.377018525,-0.0950728029,2.154228852,2.189037175
30.24388375,-0.5579213639,-0.2888483602,2.504736101,2.582326966
30.25386475,-0.6898888551,-0.3428035426,2.547635368,2.661560984
30.26384675,-0.6555513004,-0.3131745315,2.332164887,2.442707279
30.27382775,-0.4977138269,-0.2921801037,1.813969433,1.903568588
30.28380975,-0.2516616035,-0.2290003538,1.065980158,1.11896757
30.29379075,0.02638526827,-0.15573825,0.3402857316,0.3751599179
30.30377275,0.432000917,-0.1370037711,-0.3378070968,0.5652507942
30.31375375,0.7498255929,-0.1599815744,-0.8803719914,1.167427671
30.32373575,0.9449703488,-0.1842615527,-1.17517691,1.519197831
30.33371675,1.080284202,-0.2098530614,-1.192641959,1.622789914
30.34369875,1.070003919,-0.2525856829,-0.8967781091,1.418773728
30.35367975,0.9722441015,-0.3401453984,-0.3768097794,1.096787625
30.36366175,0.8188046844,-0.4501777178,0.1850322157,0.9525429174
30.37364275,0.6139724077,-0.5939297605,0.6616475344,1.080505501
30.38362475,0.4094562462,-0.713336336,1.012012696,1.304098479
30.39360575,0.2400213321,-0.7765470761,1.201585275,1.450669767
30.40358775,0.07261087015,-0.7787877291,1.116938642,1.363574199
30.41356875,-0.03762727126,-0.7531552899,0.7611648059,1.071461882
30.42355075,-0.1092299353,-0.6798230195,0.3045586592,0.7528920862
30.43353175,-0.1575709867,-0.5853975034,-0.07101560354,0.6103786274
30.44351375,-0.1566272461,-0.5336391199,-0.3338456082,0.6486568389
30.45349475,-0.1371313135,-0.5118465471,-0.5158302552,0.7395084429
30.46347675,-0.1130939946,-0.5188304615,-0.7199664938,0.8946099998
30.47345775,-0.08342880383,-0.576403901,-0.9154237103,1.084989581
30.48343992,-0.05898561515,-0.6048032427,-1.102844514,1.259179211
30.49342092,-0.05853786461,-0.5692644507,-1.231453437,1.357927194
30.50340292,-0.08110643595,-0.4759165764,-1.272363482,1.360876067
30.51338392,-0.08192650795,-0.3724682218,-1.263624233,1.319920729
30.52336592,-0.1105063824,-0.2835297328,-1.196268402,1.234365772
30.53334692,-0.2335540192,-0.1853836334,-1.047868992,1.089469594
30.54332792,-0.2761862147,-0.07654473066,-0.8650645655,0.9113038042
30.55330992,-0.5720912871,-0.1439777452,-0.7714015263,0.97112221
30.56329092,-0.7325564262,-0.1606814861,-0.7124107218,1.034401515
30.57327292,-0.9659509626,-0.2328279412,-0.6196107316,1.170977186
30.58325392,-1.105559961,-0.3032757801,-0.5617121869,1.276620385
30.59323592,-1.204250436,-0.3399998027,-0.4726275176,1.337608219
30.60321692,-1.334113587,-0.2902253795,-0.3632828307,1.412821379
30.61319892,-1.43145511,-0.1959583229,-0.2038245821,1.459112009
30.62317992,-1.364334775,-0.1178020996,-0.03680822253,1.369905675
30.63316192,-1.243253849,-0.03232165396,0.07559631228,1.245969352
30.64314292,-1.063784821,0.0541440475,0.1013006723,1.069968013
30.65312492,-0.9311234844,0.1506885946,0.07890583634,0.9465326865
30.66310592,-0.8878120617,0.2255113202,0.09250704467,0.920664524
30.67308792,-0.870654723,0.3084961742,0.1722069329,0.9396088356
30.68306892,-0.9086388206,0.3858875817,0.2947821146,1.03025736
30.69305092,-0.9806536402,0.4278612345,0.337237578,1.121818159
30.70303192,-1.038525215,0.4137372851,0.294974488,1.156167423
30.71301392,-1.090846173,0.4040367544,0.2137572473,1.182743942
30.72299492,-1.119381244,0.4109458244,0.1238832039,1.198848567
30.73297692,-1.108602705,0.4277220708,0.03576215565,1.188791428
30.74295792,-1.091221126,0.4530346674,-0.04847341776,1.182520033
30.75293992,-1.066249495,0.4918981862,-0.09557040095,1.17812797
30.76292092,-1.068352227,0.4715773576,-0.09260995567,1.171468433
30.77290292,-1.018540674,0.3997793967,0.001347198486,1.094189419
30.78288392,-1.038248422,0.3560504097,0.2924233478,1.13588868
30.79286592,-1.239406528,0.3735365081,0.8757638007,1.562888447
30.80284692,-1.454696038,0.3949893576,1.602023068,2.199689766
30.81282892,-1.673562144,0.3311535501,2.123608153,2.724001562
30.82280992,-1.877807871,0.2057418841,2.250923088,2.938562041
30.83279192,-2.008613886,0.01514487326,1.950164534,2.799625121
30.84277292,-1.986187183,-0.1682279027,1.384097341,2.426719102
30.85275492,-1.870846761,-0.2678691351,0.7814213151,2.045101648
30.86273592,-1.746241719,-0.2127871943,0.38716169,1.801258644
30.87271792,-1.677028081,-0.2186753404,0.1919249135,1.702080274
30.88269892,-1.695366995,-0.2712716299,0.2047554588,1.729098709
30.89267992,-1.767683897,-0.3953776127,0.3448184931,1.843889804
30.90266192,-1.769151402,-0.6410279131,0.5371953964,1.956883329
30.91264292,-1.650419156,-0.8072572374,0.6403525597,1.945661594
30.92262492,-1.585732725,-0.9746396327,0.4955193669,1.926138659
30.93260592,-1.503026783,-1.061264378,0.1904479069,1.849768093
30.94258792,-1.416545148,-0.9856300592,-0.05990706325,1.726747123
30.95256892,-1.323794859,-0.8127723312,-0.1423522192,1.559902512
30.96255092,-1.270468399,-0.6589379346,-0.148740887,1.438892979
30.97253192,-1.255019909,-0.5619373047,-0.1126150346,1.379684983
30.98251392,-1.265390384,-0.5191976666,-0.09425243855,1.371007864
30.99249492,-1.351602755,-0.5736416763,-0.07291185558,1.470105751
31.00247692,-1.551204624,-0.6915729994,0.05861775219,1.699395493
31.01245792,-1.819809047,-0.8438514519,0.3783698165,2.041311823
31.02243992,-2.010408397,-1.052988814,0.7430641651,2.388026741
31.03242092,-2.110406748,-1.22265981,1.038567241,2.650912214
31.04240292,-2.072776261,-1.346805553,1.160396318,2.730715335
31.05238392,-1.999979595,-1.445190219,1.02974964,2.673738483
31.06236592,-1.868297083,-1.435904841,0.7739093971,2.480179924
31.07234692,-1.720105103,-1.323244198,0.5098848063,2.229286722
31.08232892,-1.622383219,-1.203622445,0.2157119715,2.031591975
31.09230992,-1.47992882,-1.049156549,-0.0103086412,1.814118255
31.10229192,-1.338426932,-0.9400387341,-0.1648996675,1.643852601
31.11227292,-1.192777175,-0.8463435352,-0.2556566405,1.484713807
31.12225492,-1.058093433,-0.8166525435,-0.3197310144,1.374303828
31.13223592,-0.9374459325,-0.7935969722,-0.3635254902,1.280918347
31.14221792,-0.8488775723,-0.7436868936,-0.3555539811,1.183250591
31.15219892,-0.76403842,-0.6768508798,-0.3150263447,1.068233785
31.16218092,-0.6353860809,-0.5832621002,-0.246253733,0.8969676975
31.17216192,-0.4743354893,-0.4558863544,-0.1463487911,0.6739766266
31.18214392,-0.3039189738,-0.3437975693,-0.003017163277,0.4588819179
31.19212492,-0.2241553509,-0.2799436355,0.164375757,0.3945040556
31.20210692,-0.200510965,-0.2820731914,0.3395016199,0.4848002499
31.21208792,-0.1729267251,-0.3138767821,0.5021694052,0.6169249534
31.22206892,-0.2007048002,-0.3343110466,0.5568940812,0.6798362379
31.23205092,-0.1880039169,-0.3479128397,0.5812284386,0.7030044912
31.24203192,-0.1093749097,-0.296224038,0.6094798458,0.6864235092
31.25201392,0.06782083109,-0.1718870902,0.6426815057,0.668718442
31.26199492,0.2775269812,-0.008034074306,0.5936058247,0.6553271296
31.27197692,0.4181830694,0.1980054331,0.5010800689,0.6820296669
31.28195792,0.522590075,0.3925387895,0.4334242755,0.7842472125
31.29193992,0.5955496219,0.6059633303,0.4815737575,0.9766187556
31.30192092,0.5727181086,0.7394605261,0.5739071399,1.09735013
31.31190292,0.460702304,0.768014819,0.6172695065,1.087710908
31.32188392,0.3270024656,0.7567910886,0.6671111727,1.060519062
31.33186592,0.1992554216,0.7105530614,0.7259926343,1.035207072
31.34184692,0.09864194334,0.6699856639,0.8334627038,1.073904605
31.35182892,0.05594776735,0.6982171905,0.9340704811,1.167529469
31.36180992,0.09234756187,0.7480091554,0.9684287202,1.227151154
31.37179192,0.1437488267,0.8194381571,0.898800661,1.224738848
31.38177292,0.2160853528,0.9214475119,0.7667173219,1.218036883
31.39175492,0.2591451259,1.037889549,0.652899515,1.253255237
31.40173592,0.2353210843,1.128390414,0.4992832196,1.256154717
31.41171792,0.1808603735,1.165548885,0.3387408972,1.227175649
31.42169892,0.2356044915,1.081264195,0.07666927636,1.109288021
31.43168092,0.3784809136,0.9236864108,-0.1693950069,1.012491509
31.44166192,0.4971500822,0.7788999957,-0.2235992807,0.9507050257
31.45164392,0.546995476,0.6323541534,-0.02203698635,0.8363979046
31.46162492,0.5380047973,0.4893172252,0.3654562408,0.8139034173
31.47160692,0.5357258449,0.3227733207,0.8009463376,1.016218398
31.48158792,0.5643551284,0.1529964906,1.102391939,1.24786723
31.49157017,0.5964021094,-0.0257447058,1.205525714,1.345232512
31.50155117,0.6527547964,-0.1060363322,1.198153544,1.368540991
31.51153317,0.6931228039,-0.0809599632,1.198830067,1.387143564
31.52151417,0.7500546576,-0.008567340374,1.248601567,1.456592345
31.53149617,0.8445143799,0.04929319739,1.350716171,1.593759245
31.54147717,0.9026747337,-2.397358418e-05,1.347693161,1.62206613
31.55145917,0.9289924666,-0.1822980577,1.222501935,1.546211682
31.56144017,0.9031147367,-0.451766991,0.9410871398,1.380345843
31.57142217,0.8844964711,-0.7832210881,0.5284982479,1.294248693
31.58140317,0.9235905164,-1.033806438,0.1053802747,1.390280618
31.59138417,0.9273527612,-1.176774954,-0.2691145921,1.522236874
31.60136617,0.9367778881,-1.267776926,-0.544216733,1.667627955
31.61134717,0.9268346248,-1.275461336,-0.6852615148,1.719129834
31.62132917,0.9213646276,-1.275598161,-0.7207044125,1.730745012
31.63131017,0.8972255673,-1.316870733,-0.6492572844,1.720667681
31.64129217,0.788006157,-1.34838781,-0.5058706927,1.641648119
31.65127317,0.6129736302,-1.363211671,-0.2567173254,1.516570644
31.66125517,0.4104103656,-1.345568283,-0.002097980976,1.406767597
31.67123617,0.2087677451,-1.302536868,0.1636126953,1.329268739
31.68121817,0.03923591338,-1.211543668,0.1714491338,1.224243571
31.69119917,-0.09577724621,-1.136961848,0.04467331231,1.141863052
31.70118117,-0.1069254014,-1.030028552,-0.1690886128,1.049277284
31.71116217,-0.01192715049,-0.9517746806,-0.4696255571,1.061397882
31.72114417,0.04309529498,-0.7533412313,-0.7255657876,1.046817046
31.73112517,0.1113144676,-0.542725693,-0.8758842534,1.036395346
31.74110717,0.2051035874,-0.3419755769,-0.9192922282,1.002054379
31.75108817,0.2881502757,-0.1507394654,-0.9238173884,0.9793832421
31.76107017,0.32550207,-0.02961965561,-0.9087970608,0.9657851828
31.77105117,0.3137238043,0.02530031741,-0.907137621,0.9601882081
31.78103317,0.2375790963,0.0570968914,-0.9110371292,0.9432351418
31.79101417,0.1260073511,0.06383756161,-0.846814236,0.8585146692
31.80099617,0.0177508311,0.0542715168,-0.7563309127,0.758483315
31.81097717,-0.06350061581,0.06253363252,-0.6527533346,0.6588093042
31.82095917,-0.1401627293,0.1270909864,-0.560871942,0.5919248642
31.83094017,-0.2078572606,0.1767964125,-0.5364668334,0.6018789542
31.84092217,-0.2338066189,0.2161318016,-0.5456364369,0.6317417289
31.85090317,-0.2255239648,0.2779889113,-0.4997691232,0.6147422793
31.86088517,-0.231711927,0.3369662672,-0.415780887,0.5831898733
31.87086617,-0.224366143,0.3669121975,-0.345264051,0.5515178979
31.88084817,-0.2026399362,0.3833276707,-0.301996994,0.5283987427
31.89082917,-0.1715828157,0.4183226717,-0.2402071273,0.5119902189
31.90081117,-0.1260440424,0.4892669392,-0.1044406271,0.5159235243
31.91079217,-0.01693295181,0.5727143079,0.07956481755,0.5784625861
31.92077317,0.06115266636,0.6399146032,0.1952414542,0.6718255529
31.93075517,0.1272007678,0.6457109481,0.2120048368,0.6914251331
31.94073617,0.1976015367,0.6431685787,0.1128957009,0.6822445509
31.95071817,0.2624341482,0.6078566587,-0.05681973338,0.6645222959
31.96069917,0.2892771073,0.5782446045,-0.2270754504,0.6852819329
31.97068117,0.3159561981,0.5992466336,-0.2879356098,0.7360922242
31.98066217,0.3988294434,0.6971816486,-0.1904408902,0.8254664795
31.99064417,0.5176523937,0.8656937259,-0.03271634102,1.009187786
32.00062517,0.604618763,0.9924613613,0.1190791315,1.168213697
32.01060717,0.572273574,0.9576230657,0.2547918373,1.144315455
32.02058817,0.5694555084,0.9165136313,0.4799710357,1.180952585
32.03057017,0.4218440111,0.8889907873,0.7126025105,1.21493182
32.04055117,0.262517471,0.6913303399,0.7293734944,1.03867163
32.05053317,0.1124036577,0.5689106941,0.5529115427,0.8012522288
32.06051417,-0.02945432559,0.5886228275,0.3653784728,0.6934304715
32.07049617,-0.02149933487,0.636042577,0.137575044,0.6511061925
32.08047717,-0.06082339503,0.6218543082,-0.2200967985,0.6624536714
32.09045917,-0.07534400493,0.6719392186,-0.4126029253,0.7920986091
32.10044017,-0.112589453,0.7470285773,-0.3392314786,0.8281340932
32.11042217,-0.2186494665,0.7296564996,-0.07064430535,0.7649815779
32.12040317,-0.2409205607,0.7072622484,0.238733629,0.784382783
32.13038517,-0.2682172637,0.6353198612,0.4550706679,0.8262331023
32.14036617,-0.3102761398,0.486499452,0.64152785,0.8628504981
32.15034817,-0.3080893542,0.2287354749,0.9783748341,1.050931151
32.16032917,-0.1947081882,0.04371436894,1.591491648,1.60395383
32.17031117,-0.07333950631,-0.02355550826,2.43743231,2.438649177
32.18029217,0.1381354997,-0.04749693274,3.13184881,3.135253474
32.19027417,0.2433334874,-0.006599167585,3.459596357,3.468149606
32.20025517,0.3937545718,0.01432041585,3.412388277,3.435060624
32.21023717,0.670429029,-0.1402074605,2.646076752,2.733286555
32.22021817,0.8672639957,-0.2835595536,1.3518938,1.631002669
32.23020017,1.037795701,-0.3431380033,0.1388994384,1.101842394
32.24018117,1.141811528,-0.2936840075,-0.5670413393,1.308250642
32.25016317,1.204576345,-0.2570956403,-0.8570059329,1.500520412
32.26014417,1.1824469,-0.2089157528,-0.8085079569,1.447588194
32.27012617,1.111700414,-0.1595085347,-0.4604220396,1.213799505
32.28010717,1.031423406,-0.2217182314,0.03829575419,1.055679772
32.29008917,0.9865061183,-0.4437598139,0.4921923012,1.188431889
32.30007017,0.9538726616,-0.6994994849,0.7634428811,1.407841474
32.31005217,0.9147789086,-0.9193197101,0.8917869258,1.573929192
32.32003317,0.8456851387,-0.9768709302,1.041746373,1.65972759
32.33001417,0.7515215778,-0.9041596341,1.146043158,1.641859996
32.33999617,0.7197456153,-0.8295526707,1.075359092,1.537071423
32.34997717,0.6701878314,-0.7367234445,0.8870097506,1.33367892
32.35995917,0.6836699027,-0.6402747917,0.7371058524,1.191923396
32.36994017,0.6418060313,-0.6756960547,0.5639762288,1.08928845
32.37992217,0.5686133632,-0.7507690412,0.3322943419,0.9986965704
32.38990317,0.4447515748,-0.8129196811,0.08254806697,0.9302991747
32.39988517,0.3496414228,-0.853051461,-0.1580642724,0.9353770544
32.40986617,0.2779947585,-0.8573000479,-0.4515009427,1.008016646
32.41984817,0.1944488642,-0.8950379777,-0.8023332971,1.217637903
32.42982917,0.1845998141,-0.8660083061,-1.046497235,1.370840597
32.43981117,0.1219983539,-0.826555388,-1.18569839,1.450502699
32.44979217,0.1572670045,-0.740808894,-1.141651899,1.369999922
32.45977417,0.3175431325,-0.6347041494,-1.118920848,1.325015797
32.46975517,0.4743281072,-0.5975544494,-1.240743493,1.456537981
