Time (s),Linear Acceleration x (m/s^2),Linear Acceleration y (m/s^2),Linear Acceleration z (m/s^2),Absolute acceleration (m/s^2)
0.124908812,0.9509678483,-2.390284061,-0.7820783854,2.688762605
0.143250062,1.249764204,-1.664330482,-0.08718729019,2.083148613
0.161591312,1.127093077,-0.9110183716,-0.3636214733,1.494159915
0.179932562,0.622813046,-0.848074913,-0.5827884674,1.202817337
0.198273812,0.08432722092,-1.230457306,-0.4346580505,1.307694109
0.216615062,-0.2463073134,-0.8647680283,-0.619325757,1.091812909
0.234956312,-0.2357874513,0.4446907043,-1.176698804,1.279830309
0.253297562,0.09431749582,1.881692886,-0.8297421932,2.058673363
0.271638812,0.229130432,2.287583351,0.1963841915,2.307402239
0.289980062,0.1682674885,2.10896492,1.026527643,2.351553951
0.308321312,0.3984781802,2.494680405,1.042565107,2.732975884
0.32666251,1.36978662,3.240922928,1.477746487,3.81623263
0.34500376,1.777752757,2.73517704,1.536263466,3.605787534
0.36334501,2.015940666,1.793777466,2.283103704,3.534715956
0.38168626,2.19592905,1.937381744,2.199745655,3.66257196
0.400027458,2.398466349,3.371553421,2.392271519,4.779432635
0.418368708,2.36267519,3.123682022,3.321042776,5.135070452
0.436709958,1.417874455,1.404072762,3.580753326,4.099217325
0.455038448,0.7277681231,-0.1326303482,3.274356127,3.356880292
0.473392458,1.001369238,-0.1863546371,2.758024693,2.9400967
0.491733708,2.166582108,-0.6031999588,4.262171745,4.819132308
0.510062146,2.534249544,-1.647446156,4.30741787,5.262161941
0.528416208,2.136223078,-2.945306778,2.783610582,4.581131839
0.546757406,1.647686005,-4.131896019,0.6973111629,4.50262998
0.565085896,1.018422365,-4.149729252,-1.268701553,4.457245855
0.583439854,0.8964934945,-3.580766678,-2.313573122,4.356398877
0.601781104,0.7196164131,-3.132802963,-1.544224501,3.566080691
0.620109542,1.172159433,-2.530357838,0.8218185902,2.907241703
0.638463552,1.165089846,-2.053563118,1.25512886,2.673930494
0.656804854,0.7625980973,-1.53851223,0.3651678562,1.755540744
0.675146052,0.5161935687,-1.523776054,-0.5913140774,1.714059976
0.69348725,0.2494142652,-0.5910310745,-1.124210358,1.294362443
0.7118285,0.7837501764,0.2407674789,-1.594218969,1.792698368
0.73016975,1.156451941,0.9641418457,-0.9202634096,1.764606283
0.748511,1.350938201,1.132465363,-0.05755198002,1.763752831
0.766852198,1.39033103,1.654112816,-0.2887604237,2.180021138
0.785193396,1.142755985,2.346666336,-0.411907196,2.642423447
0.803534646,1.061603665,2.318898201,-0.5261203051,2.604053337
0.821875896,1.131090999,2.075080872,-0.4904603958,2.413685744
0.840204333,1.795117021,1.225786209,1.36633265,2.567462144
0.858558344,1.641470671,0.1563434601,2.895450592,3.332041922
0.876899542,-0.2818344235,0.1587371826,1.015836954,1.066092328
0.895227979,-2.25965476,1.528333664,-2.049594402,3.412137254
0.913582042,-2.86868453,2.453817368,-1.800645471,4.182450803
0.931923239,-0.8167353868,2.627644539,2.59940052,3.785294649
0.950251677,0.834192872,2.058228493,6.474006176,6.844336216
0.968605687,0.5529197454,0.4663133621,5.51235342,5.559605078
0.986946885,-0.3147446811,-0.7604703903,1.555680156,1.759977323
1.005275323,-0.9073562622,-2.054578781,-0.5135499239,2.303979791
1.023629333,-0.142300874,-2.052469254,0.4807934761,2.112827949
1.041970583,1.726900816,-1.613239288,3.687216997,4.379531552
1.060299021,2.38536334,-1.634946823,4.825175762,5.625418253
1.078652979,1.42664969,-2.743970871,2.386793137,3.906595315
1.096994229,0.4321930408,-5.163039207,1.644881487,5.435935962
1.115322667,-0.3071088791,-2.653858662,-0.3509981632,2.694528042
1.133676625,1.069046259,-2.509679794,0.9321312904,2.882745448
1.152017875,1.2859025,-1.333025932,1.627266407,2.465461283
1.170359073,0.5921195745,-1.174463272,-0.04037809372,1.315902716
1.188700271,0.1148420647,-1.315662384,0.2304673195,1.340623509
1.207041521,-0.0007938817143,-0.5851335526,0.3001105785,0.6576079865
1.225382667,-0.03392678499,0.1986064911,0.3110663891,0.3706182179
1.243723917,0.125927195,0.5301713943,1.003880739,1.142241614
1.262065114,-0.249222517,0.6486377716,0.6313004494,0.9388200462
1.280406312,-0.1952440739,0.9670534134,1.153040171,1.517502615
1.29874751,0.5444428325,1.449982643,2.060729742,2.577881831
1.31708876,0.9301469326,1.362452507,2.128081799,2.692616254
1.335429958,1.501983047,0.8928499222,2.740690708,3.250310695
1.353771208,1.471938133,0.9929037094,2.031542778,2.69807815
1.372112354,1.283146381,1.342300415,0.7003166676,1.984610409
1.390453604,1.457578659,1.781434059,1.740730286,2.885859453
1.40879475,1.312269092,1.245606422,3.054043055,3.549755556
1.427136,0.7571724057,0.3667240143,2.622418642,2.754065375
1.445477198,0.5729957223,0.004095077515,1.586465597,1.686776203
1.463818396,1.399064422,-0.4494924545,2.991811037,3.333220365
1.482159594,2.135726929,-1.230740547,4.520840645,5.149179735
1.500500792,2.042568922,-1.996604919,3.53104949,4.541676949
1.518841989,1.64036262,-2.337128639,0.9281134605,3.002391447
1.537183239,1.492274761,-2.370991707,-0.5852048397,2.861983637
1.555524437,1.570536375,-2.356694221,-0.6454312801,2.904681342
1.573865583,1.330311656,-1.980505943,-0.2749037743,2.401604667
1.592206781,1.37451911,-2.02505064,1.034607649,2.657168769
1.610547979,1.34611845,-1.660041809,0.7349762917,2.260080494
1.628889229,1.288305998,-1.153365135,-0.08613753319,1.731301
1.647230375,1.006853938,-0.8911266327,-0.6649768353,1.500018573
1.665571573,0.8067412376,-0.7049942017,-0.6376440525,1.246771104
1.683912823,1.068739772,-0.284163475,-0.4416925907,1.190817335
1.702253969,1.360630512,-0.1637992859,0.2023558617,1.385313499
1.720595167,1.157655716,-0.2719545364,0.1140713692,1.19462894
1.738936364,0.6989453435,-0.1273756027,-0.4025321007,0.816566733
1.757277562,0.7007899284,0.3462152481,0.1743628979,0.8008582534
1.77561876,0.7410842776,0.6563749313,1.117522717,1.492947078
1.793959958,0.9841659069,0.904384613,1.913718224,2.334268943
1.812301156,1.353662729,0.8138008118,3.05403614,3.438286098
1.830629542,1.673952818,1.051960945,3.756759167,4.245230183
1.8489835,1.576757431,1.009384155,3.815255165,4.249846155
1.867324698,0.04088795185,0.9358730316,1.409990072,1.692808955
1.885653135,-1.632045865,1.027413368,-1.444474101,2.409493176
1.904007042,-1.308332443,1.925392151,-0.6404008865,2.414328481
1.922348239,0.418854326,1.916033745,3.700539351,4.188151829
1.940676677,0.8050400019,0.7684707642,4.942543983,5.066298229
1.959030635,-0.2071250081,-0.2896604538,2.482110977,2.507524447
1.977371781,-1.014372349,-1.322384834,0.1973619461,1.678274307
1.995700219,-1.014638186,-2.002257347,-0.6496640444,2.336790214
2.014054177,-0.2336220741,-2.202988148,-0.4460544586,2.259801016
2.032395375,0.6467718482,-2.472908497,0.3101232052,2.574833327
2.050736521,1.223486185,-2.49250412,0.9427952766,2.932295716
2.069077667,1.114460945,-2.924154282,1.091177464,3.314116733
2.087418864,0.9004431963,-3.374047756,1.048896074,3.646255502
2.105760062,0.7484525442,-3.36055088,1.007773876,3.587351616
2.124101208,1.000144839,-2.80357933,1.196088791,3.207954981
2.142442406,0.9511698484,-2.011393547,1.02691555,2.450506811
2.160783552,0.6495010853,-1.308828354,0.4978578091,1.543614498
2.179124802,0.6227787733,-0.889626503,0.2593412399,1.11648851
2.197465948,0.758182168,-0.5993909836,0.4398646355,1.061880713
2.215807146,0.9560284615,-0.2413167953,0.8655064106,1.311992973
2.234148292,0.8690026999,0.4988155365,0.6219129562,1.179304183
2.252489437,0.1899280846,1.262958527,0.3240354061,1.317625084
2.270830635,-0.2591034174,1.609508514,0.3165686131,1.66068297
2.289171833,-0.05756822228,2.003561974,0.7419462204,2.137301775
2.307512979,1.132926702,2.586556435,2.858162165,4.017821308
2.325841364,2.042390823,2.681633949,5.467034817,6.422693407
2.344195323,1.225882292,2.086521149,3.897132397,4.587373847
2.362536469,0.1094968915,1.930215836,1.283298254,2.320469166
2.380877614,0.2645661831,1.724214554,1.620983839,2.381281105
2.399218812,1.163425326,1.010491371,3.785369396,4.087012695
2.417559958,1.510515571,-0.1678037643,3.833884478,4.124134525
2.435888344,1.230394006,-1.445609093,2.406449556,3.065070069
2.454242302,1.324964523,-2.341265678,1.584715128,3.122239261
2.4725835,1.880672097,-2.410181999,1.029567003,3.225819744
2.490924594,2.383871078,-2.096892834,0.5361845493,3.219828372
2.509265792,2.612639189,-1.392840385,0.4994149208,3.002549439
2.527606937,2.447389126,-0.9801282883,0.8537039757,2.771132525
2.545948135,2.371543884,-0.7848529816,1.488818169,2.908056763
2.564289281,1.922299266,-1.530267715,1.330121279,2.793953537
2.582630427,0.9421788454,-2.673862934,-0.1239509583,2.83771172
2.600958812,0.3140390515,-3.286919594,-1.538655758,3.64279048
2.619312719,0.5136786699,-2.911755085,-1.924371123,3.527802102
2.637653917,0.7574290037,-2.382295132,-1.42765069,2.878752383
2.655995062,0.823603034,-1.831451416,-1.531657457,2.525571384
2.674336208,0.8999399543,-1.181368828,-1.77562654,2.314816157
2.692677354,0.6868818998,-0.7026576996,-1.559622526,1.843354825
2.711018552,0.547177434,-0.5380086899,-0.6244485378,0.9893394114
2.729359646,0.5909748673,-0.2165880203,0.3660924435,0.7281382709
2.747700844,0.8401930332,0.3991575241,0.9261949062,1.312664491
2.766029229,0.8103569746,1.353442192,0.8092217445,1.772942195
2.784383135,0.6528737545,1.909412384,1.204119444,2.349894344
2.802724281,1.116856813,2.499952316,2.215743303,3.522307356
2.821052614,1.854722381,3.237421036,3.571296453,5.164789292
2.839406573,1.885519266,3.40126133,4.180542946,5.709702344
2.857747719,0.225751996,2.743940353,2.172591448,3.507182092
2.876076104,-1.443653703,1.916913033,0.09380269051,2.401560021
2.89443001,-1.225888848,1.235826492,1.203402996,2.116187458
2.912771156,0.4856017828,0.6843748093,4.557480812,4.634092071
2.931099542,1.243156672,-0.2871427536,5.356211662,5.506077809
2.949453448,0.3244238496,-1.20626545,2.395012617,2.701187258
2.967794594,-0.7839694619,-1.794437885,-0.2446467876,1.973440522
2.986122927,-0.6986250281,-1.710078239,-0.6380903721,1.954380679
3.004476885,0.1917439997,-1.345945358,0.08374619484,1.362111631
3.022818031,0.87349087,-1.504728794,0.9355456829,1.975459635
3.041159177,1.063454866,-1.904872894,1.154419661,2.468230489
3.059500323,0.9352355003,-2.905264854,1.074295759,3.235636057
3.077841469,0.6401047707,-3.938489437,0.5251290798,4.024573731
3.096182562,0.3431115448,-4.094431877,-0.1604206562,4.11191351
3.11452376,0.3380750418,-3.12078476,-0.695073843,3.215076966
3.132864854,0.5407740474,-2.319385529,-0.3299133778,2.404335384
3.151206,0.8741079569,-1.807277679,0.4900956154,2.066521484
3.169547146,1.068415165,-1.505786419,0.9118261337,2.059206304
3.187888292,0.615890801,-1.138511658,0.5495920181,1.406265146
3.206229385,0.1557638943,-0.5651903152,-0.311527729,0.6638915643
3.224570531,0.4984912872,0.9056396484,-0.4362475872,1.122046654
3.242911677,1.160995722,2.259400368,0.8062663078,2.665120344
3.26124001,1.507197738,2.642832756,2.691505671,4.062070011
3.279593969,1.293900132,2.131979942,3.073517084,3.958032755
3.297935114,0.6771851778,1.305137634,2.189837933,2.637679696
3.316276208,0.482193768,0.884059906,1.440038443,1.757208998
3.334617354,0.9359561205,1.406719208,2.245579958,2.810249479
3.352958448,1.901177645,1.526221275,4.401656151,5.031739728
3.371299594,1.996651769,0.7225322723,4.594484329,5.061418519
3.389640739,1.571023703,-0.1182031631,2.784168005,3.199012182
3.407981833,1.273147583,-0.5256757736,0.9482505322,1.67224964
3.426322979,1.528185487,-1.005062103,0.609500885,1.927950218
3.444664125,1.97393465,-0.9925737381,1.046319962,2.444668912
3.463005219,2.432389736,-0.7470541,1.127925396,2.78331194
3.481346364,2.634470701,-0.6373443604,0.9848678112,2.883853033
3.49968751,2.528463602,-1.287031174,1.306135893,3.123390529
3.518028604,2.127795935,-1.790603638,1.396944046,3.112110151
3.53636975,1.580797195,-2.371376038,0.9831809998,3.014795012
3.554710844,0.826266706,-3.147549152,-0.1028723717,3.255820183
3.573051989,0.1325288415,-3.678072453,-1.3807199,3.930924612
3.591380323,0.16022861,-3.229855537,-1.985610843,3.794771458
3.609734229,0.6290975809,-2.159844398,-1.953015924,2.979087577
3.628075375,0.8631251454,-1.240136623,-1.355472565,2.029834903
3.646403708,0.9626938105,-0.4329223633,-0.3975477219,1.127938534
3.664757614,0.8666678071,0.4774332047,-0.00114440918,0.9894730226
3.683098708,1.036735177,1.074132919,-0.1821196079,1.503911203
3.701439854,1.293700457,1.679271698,0.1331932545,2.123994998
3.719781,1.13017869,1.759269714,0.7552592754,2.223229716
3.738122094,0.7162666917,1.176867485,0.879137516,1.634300408
3.756463187,0.4660708308,0.6255750656,1.126978159,1.370637061
3.774804333,0.7551686168,0.9198064804,1.634584904,2.021927647
3.793145427,0.6804478168,1.7253685,2.576257229,3.174430185
3.81147376,-1.003138542,1.461820602,1.235798836,2.161112022
3.829827667,-2.359073162,1.363031387,0.02638268471,2.724660858
3.848168812,-1.248757005,1.438776016,2.285371542,2.975297223
3.866497146,1.308856249,2.093460083,6.123000145,6.602030792
3.884851,1.902899146,1.889261246,6.51839447,7.048389865
3.903192094,0.5606126785,0.3383178711,4.038887501,4.091620437
3.921520427,-0.7189632654,-0.7820959091,0.8075900078,1.334460119
3.939874333,-1.118320465,-1.601713181,-0.5927751064,2.041447551
3.958215427,-0.6511919498,-2.46211195,-0.0327091217,2.546981762
3.976556573,-0.02679312229,-2.727045059,0.7058918476,2.817050927
3.994897667,0.3921752572,-2.98374939,1.169525385,3.228676428
4.013238812,0.7347121239,-3.243944168,1.234765291,3.547903747
4.031579906,0.6654931307,-3.703858852,0.9887721539,3.89090245
4.049921,0.3582756519,-4.165186405,0.5916047096,4.222219246
4.068262094,0.4668551683,-3.770051479,-0.2156808376,3.804965194
4.086603187,0.5568573475,-3.185211182,-0.516122818,3.274453106
4.104944333,0.6468214989,-2.409515858,-0.3047907352,2.513372657
4.123285427,0.764224112,-1.370779037,-0.6226830482,1.688433547
4.14161376,0.6644845605,-0.4225912094,-0.78289783,1.110428779
4.159967614,0.6281254888,0.4300174713,0.3355894089,0.8319115978
4.17830876,0.6096596718,1.613577843,0.9662489891,1.977107857
4.196637042,0.4465520978,2.560026169,0.9947822094,2.782576936
4.214990948,-0.04534746706,2.499516487,1.05055356,2.711697226
4.233332042,-0.4073781371,2.340015411,0.7281796932,2.484325812
4.251673135,-0.06472781301,2.32933712,1.260526657,2.649326058
4.270014229,0.9458710551,2.733766556,3.170935869,4.292200592
4.288355375,1.185433149,2.914494514,3.293870449,4.55511938
4.306696469,0.4859814346,2.759690285,2.036361694,3.4639338
4.325037562,0.4136252105,2.278589249,1.618559599,2.825383152
4.343378656,0.8191233277,1.693226814,2.242755413,2.92710299
4.361706989,1.029953718,0.6406364441,2.1383605,2.45841521
4.380060844,0.7833487988,-0.771645546,1.292980194,1.697312573
4.398401937,0.668487072,-2.172051907,1.150897741,2.547400648
4.416743083,1.13363111,-2.426456451,1.662431002,3.152219415
4.435084125,2.011069059,-1.567411423,1.907635689,3.184376116
4.453425271,2.372061729,-1.002586365,1.317037344,2.892480533
4.471753604,1.945903063,-1.605369568,0.3127827644,2.541964444
4.490107458,1.439174414,-2.605076313,-0.7367534637,3.066015534
4.5084485,1.172703385,-3.179249287,-1.69705689,3.789836585
4.526789594,1.505555153,-3.50689888,-1.173801064,3.992849235
4.545130739,1.833803654,-2.941999435,-0.7727147341,3.551800188
4.563471781,1.570022464,-2.388524532,-0.951584816,3.012562637
4.581812875,1.284371495,-1.901097298,-0.7289844751,2.407322047
4.600153969,1.228905559,-1.167318344,-0.7738183737,1.863232638
4.618495062,1.403984785,-0.5527153015,-0.5328935385,1.600200926
4.636836156,1.502959847,-0.3768692017,-0.4884349108,1.624649919
4.655177302,1.583899379,0.1746768951,-0.03898024559,1.593978896
4.673518344,1.483158469,0.8279018402,-0.1045480967,1.701796347
4.691859437,1.312842846,1.18975544,0.4935369492,1.839199028
4.710200531,1.405393004,1.577280998,1.875230074,2.824788961
4.728541625,1.54525733,2.072978973,2.37375927,3.509956568
4.746869958,1.518107653,1.422119141,3.343886852,3.938102713
4.76522376,1.121431947,1.060535431,3.531148911,3.853745923
4.783564906,-0.2061321735,1.434786797,1.846792221,2.347710615
4.801893187,-1.548641801,1.899403572,-0.4504328966,2.491769482
4.820247094,-1.436104298,2.573652267,-0.5683288574,3.001512825
4.838588135,0.3914384544,3.010890961,2.973597765,4.249820244
4.856916417,1.319658041,2.621665955,5.058139324,5.848025577
4.875270271,0.2293961197,1.074442863,3.208157539,3.391065444
4.893611417,-1.186974645,-0.689125061,0.536101222,1.473501502
4.911939698,-1.568838239,-1.737267017,-0.7544162273,2.459368609
4.930293552,-0.9030950069,-1.816284657,-0.4519635439,2.078158221
4.948634646,-0.06085315347,-1.543751717,0.9955723286,1.837943615
4.966962927,0.6914958954,-1.345954895,2.72637701,3.118155345
4.985316833,1.036114812,-1.901453972,3.541917086,4.151413946
5.003657875,0.8774271011,-2.838598251,2.879333019,4.137399786
10.02909314,0.4668444097,-2.212362766,-0.6141959429,2.343017151
10.04743407,0.0209249258,-2.766423702,-1.247386932,3.034717798
10.06577506,-0.260830164,-2.951256752,-1.300713301,3.235707632
10.08411595,-0.2601220012,-2.869511604,-0.1968165636,2.887991874
10.10245688,-0.1124067008,-2.851830959,1.109880567,3.062255698
10.12079782,-0.1387780458,-2.349127769,0.9439436197,2.535486182
10.13913876,-0.1031182855,-1.747009277,0.2946093082,1.77467446
10.1574797,-0.09749010205,-0.8085317612,-0.08288037777,0.8185945797
10.17582064,0.06398460269,0.06235790253,0.02813410759,0.09366998131
10.19416152,0.0937012434,0.6729459763,0.493973732,0.840027534
10.21250251,-0.1022818983,1.002980232,0.8792505264,1.337726587
10.2308434,-0.6202183366,1.417920113,0.4247915745,1.604872616
10.24918433,-0.517783463,1.852321625,0.09201383591,1.92552893
10.26752527,0.4818727374,2.16461277,1.023256302,2.442294667
10.28586616,1.977008581,2.879253387,2.43054986,4.255142256
10.30420709,2.402177811,3.335526466,2.376173973,4.747883507
10.32254803,0.9058812261,2.678554535,0.5733021498,2.885125742
10.34088897,0.03731638193,2.461230278,-0.3382012844,2.484638224
10.35921709,0.6522305608,2.634190559,1.19478631,2.965110274
10.37757084,0.7038981318,1.681303978,2.274751186,2.914918285
10.39591173,-0.1040935218,0.2117614746,0.9751951694,1.003336435
10.41423985,-0.2757456303,-0.6324253082,0.05753600597,0.6923206014
10.4325936,0.6611269712,-0.6831159592,0.8846658468,1.298603075
10.45093449,1.576596856,-0.5324468613,1.543506026,2.269706624
10.46927543,1.839158177,-0.9079627991,1.629659891,2.61967376
10.48761631,1.637233019,-1.598184586,1.158890009,2.564712846
10.50595725,1.085078478,-2.318562031,0.04844784737,2.560365675
10.52429814,0.4462834299,-3.030942917,-0.871178031,3.185080066
10.54263907,0.1803002954,-3.134719849,-1.089263916,3.323472973
10.56097996,0.1484410465,-2.967427254,-0.5907160044,3.029291113
10.5793209,0.04054674506,-2.89973402,-0.3177121878,2.917369099
10.59766178,-0.06877268851,-3.012269497,-0.271573782,3.025268504
10.61600272,-0.0527292341,-2.789683342,-0.8196876049,2.90809238
10.6343309,0.2153971195,-2.053343773,-1.769232035,2.718970129
10.65268454,0.4789957702,-1.090133667,-2.211071014,2.511307108
10.67102543,0.6169425249,-0.2148933411,-2.022881985,2.125758394
10.68935355,1.063217878,0.958073616,-1.516110897,2.084929151
10.70770725,1.526987314,1.81303215,-0.06526553631,2.37129404
10.72604819,1.756929874,2.317645073,1.245478511,3.163779068
10.74437631,1.868296027,2.49252224,1.962790012,3.681812297
10.76273001,1.870338917,2.181955338,2.205131054,3.622388676
10.7810709,1.823573112,1.953818321,2.026407957,3.35397587
10.79941178,1.665633202,1.929828644,2.367057562,3.478725925
10.81775272,0.4957913756,1.432696342,1.802115202,2.355004692
10.8360936,-1.267666698,1.033519745,-0.50569731,1.711978881
10.85443449,-1.651052952,2.384178162,-0.5398821831,2.949873578
10.87277543,-0.4756920338,2.819244385,2.598507166,3.86350376
10.89111631,0.2409376502,2.101694107,4.690614223,5.145583627
10.9094572,-0.2153100818,1.032170296,3.6364398,3.786215574
10.92779814,-1.290306568,-0.106675148,0.8609904051,1.554855332
10.94613902,-1.74365449,-1.3962183,-0.9643346071,2.4330429
10.96446715,-1.337993741,-2.467113018,-1.46184361,3.16446846
10.98282084,-0.6387742162,-3.127723217,-1.340999246,3.462508339
11.00116173,-0.05666068196,-3.138198853,-0.8706628084,3.25723137
11.01950261,0.343046844,-2.49086237,-0.159488678,2.519427141
11.0378435,0.3017346561,-2.144164085,0.2161617279,2.176053612
11.05618438,0.1139169931,-2.21923399,0.5079612732,2.279473895
11.07452532,0.0007475614548,-2.605028152,0.5396764278,2.660342625
11.09286621,-0.09378665686,-2.770056248,0.2061843872,2.77930199
11.11120709,-0.1823087335,-2.235491753,-0.294107914,2.262113904
11.12954798,-0.312120229,-1.544869423,-0.6426734924,1.70207808
11.14788892,-0.2912751436,-1.024385452,-0.3020771742,1.107003786
11.16622975,-0.293153733,-0.6361122131,-0.390868783,0.8020949223
11.18457069,-0.488011539,-0.3846626282,-0.8719180822,1.070682839
11.20291152,-0.76070261,0.2816572189,-1.113960028,1.378008053
11.22125246,-0.6404690742,1.290491104,-0.5030901432,1.525997253
11.23958053,-0.6117738485,2.510960579,0.5768151283,2.648000371
11.25793423,-0.4635075331,3.743679047,2.181029797,4.357391767
11.27627511,0.2827473283,3.248238564,3.356671095,4.679555605
11.29460324,1.287192583,2.488239288,3.436339378,4.433579572
11.31295688,1.628053546,2.132304192,2.300729275,3.534209206
11.33129777,0.6476368308,2.732912064,0.09518378973,2.810213829
11.34962584,0.5708082914,3.884223938,-0.5538987517,3.964823014
11.36797954,1.503434062,3.492508888,0.3587699533,3.819247071
11.38632043,2.702113867,2.403152466,1.654375434,3.976621581
11.40464855,3.607491732,1.409749031,3.601787567,5.289070108
11.4230022,3.396952629,-0.2177391052,4.919408798,5.982247103
11.44134308,2.189806938,-1.877781868,3.728200674,4.713894296
11.45967116,0.6424104571,-3.12788105,0.9945163727,3.344457187
11.47802485,-0.2197396159,-3.748281479,-1.156683326,3.928844087
11.49636569,-0.2697447836,-3.570534229,-1.759305239,3.989565372
11.51470662,-0.2371156812,-2.88468647,-1.556046247,3.286170994
11.53304751,-0.1347596049,-2.314258575,-0.9823204279,2.517718477
11.5513884,-0.05363598466,-2.342979431,-0.638980031,2.429140777
11.56972928,-0.006155371666,-2.627530098,-1.115249515,2.854423547
11.58807011,-0.07883889228,-3.010532379,-1.718370318,3.467321348
11.606411,-0.8655080199,-3.413968086,-2.007314682,4.053837004
11.62475188,-1.413853884,-2.839263439,-2.000050783,3.749747034
11.64309277,-1.19192934,-1.23694706,-1.771056533,2.467260591
11.6614336,-0.1405648142,0.3550481796,-0.7718163729,0.8611145047
11.67976173,1.016818643,1.60751915,0.1016736031,1.904829517
11.69811538,1.627927303,1.934429169,1.101026773,2.757611914
11.71645626,1.845422864,1.699234009,1.976156473,3.19345834
11.73479715,1.722478509,1.639743805,1.109162569,2.624106241
11.75313803,1.81145525,1.795336723,0.2627487183,2.563911262
11.77147892,2.185495615,2.221455574,0.8778238297,3.23756554
11.78981975,2.099497318,2.63241291,1.924931288,3.878510949
11.80816064,0.4990340173,2.845503807,0.9804143906,3.050760437
11.82650152,-1.555244088,2.641597748,-0.9038226604,3.195890836
11.84484241,-1.912406564,2.632501602,-0.5795668364,3.305035744
11.86318324,-0.353263855,2.857194901,2.423630714,3.763288973
11.88152412,-0.006476841867,2.167754173,3.820612907,4.392753475
11.8998522,-1.044404387,0.2429800034,2.581236601,2.795103253
11.9182059,-1.947506785,-1.43712616,0.7066729069,2.52140851
11.93654673,-2.158033609,-2.441689491,-0.1172997952,3.260784549
11.95487485,-1.593088627,-2.641518593,0.3943586349,3.109834494
11.9732285,-0.1117584184,-3.270866871,0.9816365242,3.416821666
11.99156938,0.8923512697,-2.462975979,-0.8067269325,2.741049034
12.00989746,0.4042723775,-0.8303909302,-2.798051119,2.946536156
12.0282511,-0.09374441206,-1.484825134,-0.1752901077,1.4980722
12.04659194,0.2253973186,-1.977283001,2.948567629,3.557316837
12.06493282,0.2308806181,-2.491772652,3.155293941,4.027172291
12.08327371,-0.2038622051,-2.736353397,1.175564528,2.985153543
12.10161459,-0.8145024776,-2.442137241,-0.8549467325,2.712633869
12.11994267,-1.15704155,-1.809511185,-1.376645207,2.551122871
12.13829631,-1.188574314,-0.8867673874,-0.8572288752,1.71286504
12.1566372,-1.295625567,-0.3757696152,-0.2983721495,1.381620192
12.17497803,-1.494580269,-0.2570409775,-0.1439371109,1.523337827
12.19331892,-1.752462864,-0.1609220505,-0.07569217682,1.76146283
12.21165975,-1.434773564,0.5399475098,0.2343035936,1.550811616
12.22998788,-0.809997499,1.834356308,0.6877650023,2.119900873
12.24834152,0.5668267608,3.548002243,1.845772386,4.039367301
12.26668235,1.808566809,4.03085804,3.41336298,5.582989994
12.28501048,2.341941833,3.208204269,4.25382185,5.819988532
12.30336413,0.9505868554,1.841804504,2.227771282,3.04283159
12.32170496,-0.917252481,0.7143115997,-1.056617498,1.570997681
12.34004584,-0.7849174142,1.150836945,-1.29076159,1.899101499
12.35838668,0.4146643281,2.147005081,0.3678991795,2.217414515
12.37672756,0.1082501411,1.694813728,0.4510250092,1.757138363
12.3950684,-0.09423333406,0.7850379944,0.5227866173,0.9478767964
12.41340928,1.156602144,0.4188604355,2.069628,2.407598938
12.43175011,2.849696636,0.2049436569,3.112948656,4.225307345
12.45007824,3.0274508,-0.6410217285,2.253011227,3.827848846
12.46843189,1.964515567,-2.159438133,0.6864519119,2.998951599
12.48677272,1.092447758,-2.821222305,-0.3088347912,3.041071576
12.5051136,0.5437056422,-2.818679333,-0.8067700863,2.981852944
12.52345444,0.2747955918,-2.945543289,-0.4121437073,2.986904806
12.54179527,0.09548705816,-3.014490604,-0.1846477985,3.021649581
12.56013616,-0.05434936285,-3.184309006,-0.6093714237,3.242547028
12.57847699,-0.3417030871,-3.024175167,-1.274034381,3.299327211
12.59681788,-0.08351668715,-2.309644699,-1.491526723,2.750651857
12.61514595,0.2785113156,-1.071413994,-1.679813385,2.011782669
12.63349959,0.434001863,0.1218357086,-1.485039115,1.551948044
12.65184048,0.3110802174,0.8882131577,-1.695022941,1.938761534
12.67018131,-0.1030446291,1.114946365,-2.129900932,2.406283769
12.68852215,0.2610426843,0.6730241776,-1.210600972,1.409489106
12.70686303,1.570694327,0.4123764038,0.6437091827,1.746853308
12.72519105,2.124509096,0.833445549,2.200399876,3.170162456
12.74354475,1.554034591,1.115574837,1.978055477,2.751769285
12.76188558,0.8197536469,1.489966393,1.225239992,2.095998314
12.78022642,1.507222891,1.851611137,1.623281479,2.88707939
12.79856725,2.027229548,2.182114601,2.751289129,4.054734966
12.81690814,1.021626234,1.792142868,2.269317865,3.066806123
12.83523621,-0.9486961365,1.155895233,-0.1362347603,1.501558543
12.8535898,-1.655898213,1.016827583,-1.499176979,2.454275625
12.87193069,0.1593857408,1.384000778,1.535445213,2.073271321
12.89025876,1.881448746,1.358346939,4.678649902,5.222520531
12.90861235,1.038354874,0.5126514435,3.451660633,3.640735293
12.92695324,-0.6480522752,-0.9715681076,0.5540163517,1.292613808
12.94528131,-1.363289952,-1.634111881,-0.9277560711,2.32155389
12.96363491,-0.8912239671,-1.709798336,-0.6405797005,2.031756103
12.98197574,-0.2510598302,-1.572742462,-0.08179783821,1.594754143
13.00031662,0.1984165907,-1.758422852,0.2795622349,1.791528708
13.01865746,0.3226512671,-2.102635384,0.3810453415,2.16110503
13.03699829,0.1057289839,-2.759930134,0.5148789883,2.809536142
13.05533913,-0.06397381425,-3.180304527,0.6227059364,3.241325688
13.07368001,-0.1000756919,-2.910630703,0.428166151,2.943656312
13.09202084,-0.04599913955,-2.488646507,0.3477978706,2.513253015
13.11036168,0.06491866708,-2.150439262,0.4554021358,2.199089484
13.12870251,-0.06064578891,-1.871273994,-0.009942054749,1.872282863
13.14704334,-0.3806391358,-1.718413353,-0.8239269257,1.943369801
13.16538423,-0.4400857389,-1.424482822,-1.334267855,2.000774219
13.18372506,-0.3219844997,-0.7364149094,-1.811845064,1.982110863
13.2020659,0.1869131327,0.6171188354,-0.9015761614,1.108427603
13.22039397,0.6395838857,2.161241531,1.067277908,2.493815277
13.23874756,0.3629685044,3.455343246,1.346513987,3.726156599
13.2570884,0.3134104609,4.070589066,0.3626163006,4.098708582
13.27541647,1.279542923,4.102351189,1.556441069,4.570451199
13.29377006,1.960456371,3.117956161,4.216082096,5.598248659
13.3121109,0.8986667395,2.078882217,3.703145027,4.340810555
13.33043897,-0.06143599749,1.447615623,0.8043963909,1.65723231
13.34879261,-0.005808770657,2.885769844,-0.6857753992,2.966140461
13.36713345,0.4915838242,2.771837234,1.973250389,3.437797756
13.38546147,0.4103105962,-0.1156015396,3.720750093,3.745090087
13.40381511,0.03705990314,-1.651500702,1.041244745,1.952695221
13.42215595,-0.09841689467,-0.8230333328,-1.691529751,1.883704502
13.44048402,0.4256023467,-1.645907402,-1.274663091,2.124832824
13.45883761,1.573231697,-2.104056358,0.8753290176,2.769171721
13.47717845,1.929245234,-1.119213104,1.123358727,2.497310548
13.49551928,1.881706715,-0.2426166534,0.3702552319,1.933073185
13.51386011,1.496902227,-0.4180498123,-0.4757839441,1.625377582
13.53220095,0.7475401163,-1.432836533,-0.9239897728,1.861610554
13.55052897,0.2485679388,-2.598874569,-0.6795612574,2.697728405
13.56888261,-0.2274727523,-3.64474535,-0.6910272837,3.716642467
13.5872234,-0.3975626826,-3.988203526,-1.008205056,4.132832066
13.60555147,-0.6011121273,-3.33093977,-2.001257181,3.932114678
13.62390506,-0.8499649167,-2.47454834,-2.810668468,3.840011339
13.64224595,-0.765124321,-1.788285255,-2.50714922,3.173196589
13.66057397,-0.1073980331,-1.551470757,-1.636406541,2.257525684
13.67892761,0.3643257618,-0.5780181885,-1.184212208,1.367185737
13.6972684,0.7960223556,0.4206209183,-0.4400727749,1.002116557
13.71560923,0.7222999334,1.037180901,0.2801123857,1.294574974
13.73395006,0.7540747523,1.227337837,-0.05246829987,1.441436721
13.7522909,1.31255281,1.913250923,0.1983468533,2.328661729
13.77061892,2.22539854,2.608413696,1.215708852,3.637879697
13.78897251,2.653069973,3.551945686,1.760201097,4.770053075
13.80731334,1.930893421,3.405398369,1.826801062,4.319987219
13.82564136,-0.2906112075,2.949827194,-0.2676831484,2.976170294
13.84399496,-1.814905643,2.885548592,-2.105802536,4.006828857
13.86233579,-0.8369796276,3.011246681,0.3562362194,3.145639159
13.88066381,1.218967438,3.14806366,4.294900894,5.462816134
13.89901741,1.340735674,3.205673218,4.388603687,5.597656228
13.91735824,-0.3927794099,1.890892029,1.353792191,2.358495627
13.93568626,-1.392636061,-0.7560062408,1.226695657,2.003936842
13.95403985,-1.072481394,-1.981196404,2.223378181,3.165243445
13.97238069,0.01162034273,-1.536096573,1.787173271,2.356632346
13.99070876,0.03958031535,-0.7441120148,-0.1320316792,0.7567705439
14.00906235,-0.4549597502,-1.932843208,-0.1368808746,1.990378762
14.02740314,-0.7082738876,-3.08053875,-0.07260847092,3.161746808
14.04573116,-0.513020277,-3.865011215,0.3133049011,3.911478168
14.06408475,-0.5505059361,-4.369953632,0.02961421013,4.404591756
14.08242558,-0.6015573144,-4.397650242,-0.3051050901,4.449077204
14.10076636,-0.5770016313,-3.684978485,-1.104763865,3.89005148
14.1191072,-0.4398446679,-2.766033649,-1.849160314,3.356158421
14.13744803,-0.08094245195,-2.121852398,-1.874421954,2.832360666
14.15577605,-0.1697046757,-1.403659821,-2.203141451,2.617803052
14.17412959,-0.4821710289,-0.2667388916,-2.040684223,2.113771661
14.19247043,-0.5267267227,1.163425446,-1.497052193,1.967781765
14.21079845,-0.3767865002,2.083598137,-0.172816515,2.124432821
14.22915204,-0.4860482812,2.459850311,0.5190076828,2.560561552
14.24749288,-0.519515276,2.894944191,0.5371693373,2.989840947
14.26583366,0.0243960619,3.372217178,1.259879947,3.599964076
14.28417449,1.462208629,3.785252571,2.817025423,4.939820172
14.30251527,2.011962652,3.680776596,2.894836903,5.09668429
14.32084324,0.8912374973,2.583210945,0.4243406057,2.765383882
14.33919689,0.4238955975,1.729174614,-0.502479434,1.849923756
14.35753767,0.9354789853,1.463722229,0.4104862213,1.784965723
14.37586569,1.409387589,0.6988945007,1.33950007,2.066176985
14.39421923,1.050963879,-0.1922616959,1.217327595,1.619683953
14.41256006,0.6853055358,-0.7137298584,0.4411275387,1.083350125
14.43088808,0.8863852024,-1.355453491,0.5780662298,1.71962015
14.44924168,1.52999258,-2.137236595,0.7162971497,2.72428691
14.46758246,2.004259586,-1.582491875,0.226667285,2.563730696
14.48592324,1.963350534,-1.39320755,0.232763648,2.418667301
14.50426402,1.738425255,-1.494651794,0.6031956673,2.370643661
14.5226048,1.167693973,-1.832042217,0.2032976151,2.182021498
14.54094564,0.7571095228,-2.274749756,-0.5330537558,2.455982001
14.55928642,0.216168642,-2.287769318,-1.687816501,2.851200076
14.5776272,-0.09076482058,-2.582383156,-1.451913238,2.963948897
14.59596798,-0.09695136547,-2.340666294,-0.7900298834,2.472299635
14.61430876,0.08877766132,-2.163356781,-0.4201221466,2.205560394
14.63264959,0.3014675975,-1.74116087,-1.140603542,2.103211907
14.65099038,0.6207434535,-0.7655487061,-2.406425238,2.60043644
14.66933116,0.8690449595,-0.06272602081,-1.852587938,2.047255667
14.68767194,1.401031256,0.3581485748,0.07581377029,1.448069994
14.70601272,1.623587012,0.4419536591,0.994053483,1.954354152
14.7243535,1.122629285,0.3874158859,1.08470273,1.608405295
14.74269428,0.3878832459,-6.580352783e-05,1.253654242,1.312288983
14.76102235,0.2792966962,0.1121873856,2.333034039,2.35236912
14.7793759,0.9811127186,0.5168762207,3.625594616,3.791395457
14.79771668,1.43157053,1.535211563,3.973667145,4.494029295
14.81604465,-0.1395720392,1.687703133,1.99404192,2.616108827
14.83439824,-2.027490854,1.420106888,-1.128318071,2.720390488
14.85273902,-1.841616631,1.872046471,-0.7982056141,2.744675209
14.87106704,0.5282198191,2.786290169,3.126438618,4.221024462
14.88942058,1.512631297,2.577111244,5.007030487,5.830944186
14.90776136,0.1950437129,1.052545547,2.768348455,2.96810501
14.92608933,-1.269884706,-0.5015735626,-0.4775770903,1.446465721
14.94444293,-1.469106317,-1.228751183,-1.553102732,2.465812429
14.96278371,-0.6610027552,-1.588646889,-0.2055945396,1.732914509
14.98112449,0.2839078903,-1.343503952,1.101823568,1.760574263
14.99946522,0.5414039493,-1.267132759,0.744623661,1.566272027
15.017806,0.3874187469,-1.698629379,0.1369409561,1.747623495
15.03614678,0.25829494,-2.181024075,0.01691460609,2.196330666
15.05448756,0.1704112291,-2.312623978,-0.1990392208,2.327420516
15.07282834,0.04222899675,-2.558258057,-0.4583582878,2.599338357
15.09116912,0.1142849922,-2.132342815,-1.046163082,2.377899101
15.10950991,0.05895847082,-1.627820969,-1.583108783,2.271455618
15.12785069,-0.4085796177,-1.30077076,-1.868709683,2.313226697
15.14619147,-0.3439354002,-0.8547134399,-1.502062917,1.762106589
15.1645322,0.1539155841,0.2978105545,-1.025589585,1.078988012
15.18287298,0.4914382696,1.540510178,-0.5867545605,1.720163973
15.201201,0.3505008817,2.187346458,-0.06294584274,2.216144755
15.21955454,-0.2113721371,2.413303375,0.6074726582,2.497545674
15.23789532,-0.2647853196,2.499486923,1.035140276,2.718282828
15.2562361,0.1440131664,3.14313221,0.8785297871,3.266777383
15.27457683,0.9735448956,3.323428154,2.328422546,4.173070322
15.29291761,1.313552141,2.065497398,3.883428335,4.590502627
15.31124558,-0.1898429841,0.9571828842,1.368796349,1.681024353
15.32959918,-1.448592663,1.653738976,-0.8355371952,2.351891942
15.34793991,-0.277050972,2.43543911,1.694973946,2.980110329
15.36626793,1.077010512,1.884301186,4.879163742,5.340110619
15.38462147,0.4598451257,0.3515472412,3.695928812,3.740980191
15.4029622,-0.1488692313,-0.7172222137,1.347963333,1.534136532
15.42130303,0.5385965705,-0.9956865311,1.285682678,1.713025943
15.43964376,1.429668903,-1.086740494,1.565070391,2.382100628
15.45798454,1.585513115,-1.22244072,0.5399820805,2.073594415
15.47631251,1.635035753,-1.342643738,-0.6452140808,2.211862412
15.49466605,1.614439487,-1.478328705,-1.259285688,2.525405129
15.51300678,1.362680435,-2.037862778,-1.488809586,2.868159105
15.53134756,1.006135583,-2.927855968,-1.364563942,3.383294864
15.54968834,0.5385882258,-3.288505554,-1.509960175,3.658459483
15.56802912,0.5088410378,-3.429722309,-1.626150846,3.829658065
15.58636985,0.407936722,-3.221316814,-1.484982848,3.570499748
15.60471064,0.3643502891,-2.924951077,-1.230958462,3.194268096
15.62305136,-0.01516714692,-2.620156288,-1.722938895,3.135915728
15.64137938,-0.4310154915,-2.305920601,-2.658674002,3.545644034
15.65973288,-0.7739449143,-1.690635204,-3.666821718,4.111303885
15.67807366,-0.6189550757,-0.5880670547,-3.052393675,3.169548137
15.69640163,0.2106410265,1.135574341,-1.628727794,1.99666045
15.71475517,1.199315071,2.767525673,0.2399494648,3.025744658
15.7330959,1.465902448,3.221244812,1.339973211,3.784285445
15.75142386,1.218779802,2.843775749,1.545991898,3.45869566
15.76977741,1.563962698,3.003071785,1.773583889,3.822305492
15.78811819,2.400467157,3.697546959,1.867076874,4.787491216
15.80645892,2.265970707,3.913154602,1.430221081,4.742671665
15.82479965,0.2601098418,3.886733055,-1.815820098,4.297854534
15.84314043,-1.628859043,2.907770157,-2.556059599,4.200208297
15.8614684,-0.1326402426,4.027198792,1.103682995,4.177803214
15.87982194,1.980989456,4.147185326,5.551100731,7.206815155
15.89816267,1.395784855,2.361869812,5.664967537,6.294322963
15.91649064,-0.9555996656,-0.3209609985,2.774195671,2.951668732
15.93484418,-2.51958704,-2.387984753,0.8571138382,3.575672547
15.95318491,-2.152932644,-3.103029251,0.5487680435,3.816419247
15.97152569,-1.06526494,-2.967170715,0.2779285908,3.164827918
15.98986642,-0.4041617811,-2.718605518,-0.3556087017,2.771393198
16.00820715,-0.1392251253,-2.980366707,-0.6631588936,3.0564275
16.02654793,0.00522172451,-3.029829025,-0.6142382622,3.091468879
16.04488866,0.1185910106,-3.263541222,-0.7030006647,3.340505211
16.06322938,0.119591713,-3.223265648,-0.5177336931,3.266770851
16.08157017,0.1663327813,-2.959728241,0.2390809059,2.974023795
16.0999109,0.2308484912,-2.639938354,0.2321414948,2.66016075
16.11825163,-0.00737118721,-2.14811182,-0.7716639042,2.282521393
16.13659241,-0.3545480669,-1.871520996,-1.616577506,2.498323038
16.15493308,-0.2345477343,-0.9720811844,-1.687645912,1.961658276
16.17327386,0.001367151737,0.2113351822,-1.259945393,1.277547189
16.19160183,0.1569715142,1.195585251,-0.4619847536,1.291314857
16.20995532,0.2695054412,1.797472954,0.3568809032,1.852270548
16.22829605,0.06459766626,2.072752953,0.6520540714,2.173856521
16.24662407,0.3521153331,2.766201973,1.268177032,3.063352991
16.26497756,1.209265471,3.464074135,2.745208025,4.582390172
16.28331829,1.703797221,3.206026077,3.378850222,4.959652911
16.30165902,0.6206381917,2.692459106,2.055257082,3.44363318
16.31999975,-1.262513638,2.536044121,-0.3033214808,2.849116422
16.33834048,-2.209602356,2.961198807,-0.8678063154,3.795277163
16.35666845,-0.3466206789,3.798306465,2.156519175,4.381535444
16.37502194,1.473155737,3.65821743,5.12039423,6.463062715
16.39336267,1.330832601,1.320532799,4.656274319,5.019543088
16.41169064,0.5716733932,-0.9823684692,2.436695337,2.688743655
16.43004413,0.6585581899,-1.939478874,0.7836453915,2.19302925
16.44838485,1.321191072,-2.331096649,-0.3164690733,2.698093792
16.46671282,1.52170229,-2.919441223,-1.631445885,3.674279601
16.48506636,1.127370238,-3.875775814,-3.080023766,5.077317029
16.50340704,0.8074650168,-4.402099609,-3.396920204,5.618678457
16.52174777,1.344297051,-4.156785488,-1.733037829,4.699938327
16.5400885,1.840629816,-3.301265717,-0.1653859615,3.783335297
16.55842923,1.545530558,-2.82793808,0.2732179165,3.234276815
16.57677001,0.6813259125,-3.036233425,-0.2699341774,3.123424862
16.59511069,-0.1557622552,-3.601528645,-1.194644809,3.79768965
16.61345142,-0.4319880903,-3.291460514,-1.912571907,3.831221388
16.63177938,-0.2341879904,-1.988100052,-1.700639486,2.626701447
16.65013288,-0.08619102836,-0.7080078125,-1.930085778,2.057652805
16.6684736,0.172042191,0.4889888763,-1.887614489,1.957497661
16.68680152,1.073448896,1.625021935,-0.5018122196,2.01116989
16.70515506,2.059656143,2.31538868,0.7631716728,3.191494817
16.72349574,1.932054043,2.677800179,0.05424571037,3.302482281
16.74183647,1.147011876,2.31098938,-0.8202252388,2.707226921
16.7601772,0.7754223347,2.22251606,-0.2955731153,2.372387173
16.77851793,1.109133601,2.424182892,1.387418628,3.005290416
16.79684584,1.616963506,2.955366135,2.915673256,4.455323838
16.81519933,0.6392729282,3.219894409,2.465169907,4.105295672
16.83354006,-1.534166098,2.535600662,0.6892824173,3.042703828
16.85188079,-2.294630289,2.611051559,0.09561872482,3.477364138
16.87022147,-1.082923174,2.896760941,2.04874897,3.709625168
16.8885622,0.7351726294,3.247069359,4.311614513,5.447380832
16.90690293,1.016423225,2.716199875,4.474329948,5.332024608
16.92524366,-0.4318310618,0.5388317108,2.046472073,2.159829999
16.94358433,-1.816062927,-1.903655052,-0.5930761695,2.696984697
16.9619123,-2.123067379,-3.308396339,-1.731244445,4.295358979
16.98026579,-1.206743956,-3.796578407,-1.049303293,4.119620854
16.99860647,-0.2852448225,-3.685493946,-0.7721333504,3.776297147
17.0169472,-0.03489398956,-3.355943203,-1.228506565,3.573905532
17.03528793,-0.04850369692,-3.307201862,-0.5234280825,3.348718221
17.0536286,0.1217802763,-3.074319363,0.5877475739,3.132366069
17.07196933,0.3845900893,-2.394051552,0.9606683254,2.608117329
17.09031006,0.5092226267,-1.630170822,0.6120316982,1.814207097
17.10865074,0.07741999626,-1.389703751,-0.1501922607,1.399938601
17.12699147,-0.6857357025,-1.732907772,-1.080053091,2.154000343
17.14533215,-1.067226887,-1.798109531,-1.845354795,2.788817928
17.16367288,-0.8092797995,-1.474261284,-1.649181724,2.355457596
17.1820136,-0.5675638318,-0.6537008286,-1.318963051,1.577693572
17.20035428,-0.5541684628,0.7375659943,-1.159625173,1.481835626
17.21869501,-0.4346823394,2.322907448,-0.5226320028,2.420328895
17.23702293,-0.5091577768,3.221998215,0.3298968077,3.278619533
17.25537642,-0.213470459,3.087945938,0.9080955982,3.225773918
17.27371709,0.8162453175,3.574051857,0.3219496012,3.68018405
17.29204501,2.433410883,3.725450516,1.692857623,4.760907162
17.3103985,1.304017782,2.867621422,2.528196335,4.039243952
17.32873923,-1.235128164,0.7317590714,1.316087365,1.947587963
17.34707991,-1.855235457,0.1191549301,0.5970041752,1.952565104
17.36542064,-0.4292259812,1.899483681,0.838591814,2.120261641
17.38376136,0.8406580687,2.581195831,2.269615889,3.538422557
17.40210199,1.025096893,2.237738609,2.457461119,3.478133533
17.42044272,1.084970951,1.305211067,1.900122166,2.54778377
17.4387834,1.521551132,0.4449653625,2.138826847,2.662272019
17.45711131,1.757297516,-0.344212532,2.286602974,2.904329525
17.47546485,1.410538912,-1.334447861,1.755629659,2.617748386
17.49380553,0.8366646767,-2.399211884,0.892821312,2.693205402
17.51213345,0.3158587813,-3.364788055,-0.09929466248,3.38103902
17.53048689,0.001173257828,-3.737615585,-0.8814754486,3.84015242
17.54882761,-0.1291516721,-3.441342831,-1.442143202,3.733536882
17.56716829,-0.2518077493,-3.095852852,-1.48768878,3.443970082
17.58550897,-0.7341315746,-3.146151066,-1.100830317,3.413069452
17.6038497,-0.9540311098,-3.320741177,-1.019884467,3.602452171
17.62219038,-0.913430512,-2.989702225,-1.219150901,3.355443877
17.64053105,-0.3088268936,-1.354945183,-1.404831171,1.976056962
17.65887173,-0.2850147486,-0.6255111694,-1.626070261,1.765390077
17.67719965,-0.2750452757,0.1837396622,-1.146904111,1.193649533
17.69555314,-0.1943490207,0.5435123444,-0.8164098263,0.9998510963
17.71389381,0.114583075,1.684213638,-0.6975508928,1.826549235
17.73222173,0.7026525736,2.684412003,-0.04954981804,2.775291628
17.75057522,1.097824574,2.835031509,0.6913027763,3.117775165
17.7689159,1.191392064,2.456869125,0.8678495884,2.86509753
17.78725657,1.590685368,2.288680077,0.8972802162,2.928045119
17.80559725,1.899011135,2.772043228,1.11763835,3.541127282
17.82393793,0.7943009734,2.763754845,0.3997795582,2.903287546
17.84226584,-1.730838537,2.401234627,-1.717507243,3.422215789
17.86061933,-2.561303854,2.258084297,-1.634572387,3.7856372
17.87896001,-0.5282404423,2.57720089,2.034460783,3.325662801
17.89728793,1.175233722,3.123083115,4.7733531,5.824064067
17.91564136,0.7092113495,1.868326187,4.043326378,4.510223019
17.93398204,-1.025166273,-0.3143787384,1.344792128,1.719960972
17.95230996,-1.765465975,-1.998705864,-0.2094738483,2.674990567
17.97066345,-1.357508659,-2.78130722,-0.4772744179,3.131499718
17.98900412,-0.739754498,-2.998588085,-0.7974232435,3.189772884
18.0073448,-0.4079351723,-3.115161896,-1.18117404,3.356458975
18.02568548,-0.5264110565,-3.517776489,-1.516596556,3.866771928
18.04402616,-0.6184943914,-3.665768623,-1.587591171,4.042380566
18.06236683,-0.4901257753,-3.56686306,-0.9901121855,3.734040373
18.08070751,-0.260941267,-3.120268822,0.2392437458,3.140287476
18.09904819,-0.3348477185,-2.390552521,0.5425028801,2.474100589
18.11738886,-0.6201338172,-1.729685783,0.55408144,1.91921471
18.13572949,-0.749068439,-0.9502744675,0.5379536152,1.324205113
18.15407017,-0.244612366,0.2689743042,0.7105193138,0.7981353777
18.17239808,0.07905143499,1.38974762,0.6174552441,1.522793011
18.19075152,-0.1175811291,1.638747215,0.3080887794,1.671596977
18.2090922,-0.4436204731,2.321844101,-0.1167829037,2.366727149
18.22743288,-0.5534424186,2.630190849,0.4198153019,2.720376316
18.24577355,-0.6228742599,2.05450058,0.6524267197,2.243792682
18.26411423,-0.0323677361,2.125200272,0.60622859,2.210211974
18.28245491,1.230434179,2.843540192,1.422386408,3.409233372
18.30079553,0.6854310036,3.014379501,1.072978258,3.272244151
18.31913626,-0.3757151365,2.239244461,-0.4653177261,2.317735577
18.33746412,0.443261683,2.590833664,0.7402658463,2.730731315
18.35581756,1.723502517,2.828425407,3.259518385,4.647032528
18.37415819,1.12489152,1.285880089,3.232826233,3.656505707
18.3924861,-0.04592947662,-0.9584035873,1.995187759,2.213915344
18.41083954,0.02142100036,-2.384299278,2.177924156,3.229349089
18.42918022,0.8035550714,-2.158581734,2.082254648,3.104989577
18.4475209,1.358314157,-1.724460602,1.024309635,2.422393846
18.46586152,1.311410666,-1.802883148,-0.1213800907,2.232693151
18.4842022,0.9681894779,-2.323069096,-0.1049363613,2.51893877
18.50254288,0.6837586761,-2.825908661,-0.09167814255,2.908898515
18.5208835,0.3325088024,-3.134084702,-0.7917640209,3.24960602
18.53922418,0.04792616889,-3.153447151,-1.626499534,3.548524565
18.55756485,0.1567357183,-2.597259045,-1.840965509,3.187393079
18.57590548,0.533167541,-1.768037796,-1.836415172,2.604351351
18.59424616,0.5770793557,-1.166800499,-2.212219238,2.566779684
18.61258678,0.4692687988,-0.914103508,-2.30326438,2.52206765
18.63092746,0.3118056357,-0.753985405,-1.841566801,2.0142207
18.64926808,0.2524597049,-0.7376260757,-1.061321259,1.316902025
18.66760876,0.1622612327,-0.3212413788,-0.5721809864,0.675955481
18.68594944,-0.1853025258,-0.1164007187,-0.753516674,0.7846486675
18.70429006,-0.4406824112,0.1022911072,-0.9207931757,1.025926182
18.72261793,0.1215221882,1.00430584,-0.3526885509,1.071348251
18.74097136,0.9030975699,2.341776848,0.3638737202,2.536120681
18.75931199,1.794337034,3.903370857,1.513900518,4.554980156
18.77763985,2.237175465,4.719646454,2.336385012,5.721775217
18.79599329,1.648099184,4.009302139,2.206585884,4.864129504
18.81433397,-0.5813331604,2.139156342,0.6634628773,2.31389738
18.83266183,-2.976783752,1.279678345,-1.998881102,3.807143789
18.85101527,-2.674541712,1.919345856,-1.403417945,3.578637144
18.8693559,-0.1321784258,2.71538353,2.511057615,3.700836283
18.88768376,0.7184249163,2.380212784,3.98262167,4.694978447
18.9060372,-0.7312037945,0.6346769333,1.942045212,2.17002613
18.92437782,-1.856373906,-0.9493913651,-0.008464574814,2.085075464
18.94270569,-1.483098269,-1.477503777,-0.2121682167,2.104189449
18.96105913,-0.468996942,-1.142916679,0.0796251297,1.237964793
18.97939975,0.1695780754,-1.149555206,0.4961652756,1.263492729
18.99774038,0.1536886543,-1.601682186,0.5287797451,1.693698334
19.01608105,-0.1473065317,-2.462464809,0.3848598003,2.496707676
19.03442168,-0.3617708683,-3.360009193,0.1165037155,3.381436537
19.0527623,-0.3918868303,-3.85495615,0.1459658146,3.877572466
19.07110293,-0.1758514196,-3.745545864,0.3364145756,3.764732701
19.08944355,-0.06246127188,-3.205887794,0.03635978699,3.206702355
19.10777142,-0.3472247124,-2.777437687,-1.219894052,3.053336962
19.12612485,-0.5577898622,-2.152479172,-1.994195819,2.986823242
19.14446548,-0.3549732566,-1.024943352,-1.627661943,1.955964798
19.16279334,0.1198754609,0.7460031509,-0.760050416,1.071712397
19.18114673,0.6728284359,2.300861359,-0.0328540802,2.397444574
19.19948741,0.384129405,3.414786339,-0.06633353233,3.436963962
19.21781522,-0.1659877151,2.801218987,0.9355010986,2.957962481
19.23616866,-0.2760586739,2.231362343,1.43146944,2.665387599
19.25450928,0.1606615782,2.870225906,0.7577807903,2.972917863
19.27284996,1.093563557,3.148134232,1.238281131,3.555273625
19.29119058,0.5180007219,2.459664345,0.7391867638,2.620051623
19.30953116,-0.6958602667,2.018120766,-0.3192700148,2.15846387
19.32785902,0.07091030478,2.721374512,1.049888492,2.917734284
19.34621241,1.177125216,2.856876373,3.288288593,4.512228746
19.36455308,0.807874918,1.220842361,3.063778162,3.395563956
19.3828809,0.009190097451,-0.6151542664,1.435030699,1.561349524
19.40123428,0.4611694813,-1.300451279,1.091451645,1.759294606
19.41957496,1.379743814,-1.352231979,0.9389983416,2.148008893
19.43791558,1.776024342,-1.1616745,0.4623394012,2.171982465
19.45625621,1.80143106,-1.10692215,0.2788572311,2.132649025
19.47459683,1.607126951,-1.756441593,0.2895354033,2.398285816
19.49292465,1.053333521,-2.598216057,-0.2848165035,2.818041629
19.51127808,0.3866305053,-3.668671608,-0.8349846601,3.782305368
19.52961871,-0.1222564876,-4.186322689,-0.9563916922,4.295920085
19.54795933,-0.1311700046,-4.350572586,-0.5089616776,4.382205995
19.56629996,-0.03354869783,-4.252334595,-0.5676544905,4.29018725
19.58464053,-0.2306107283,-3.735865593,-1.285452247,3.957557393
19.60298116,-0.1732586622,-2.939696312,-1.557782769,3.33144415
19.62132178,-0.1242400259,-1.798351288,-1.61544168,2.420569098
19.63966241,-0.03661337495,-0.6387214661,-1.627912402,1.749115331
19.65799027,0.199549526,0.6183137894,-1.762168646,1.878129466
19.67634366,0.6482432485,1.803050041,-1.52641654,2.449725743
19.69468428,1.110491514,2.529761314,-0.8270406723,2.883900134
19.71302491,1.251735449,2.744982719,-0.05095505714,3.017344558
19.73136553,0.9309071302,2.537733078,0.1507613659,2.707287619
19.74970616,0.473108232,2.018825531,0.2368307114,2.087001847
19.76804678,0.8729127049,2.021299362,0.6565039158,2.297525864
19.78638735,1.288778901,2.274701118,1.419200659,2.974785159
19.80472798,0.3345753551,2.516159058,1.053164721,2.748118083
19.82305584,-1.73178792,1.956432343,-0.6240050793,2.686279816
19.84140923,-2.27613759,1.6328125,-0.6092802286,2.86672311
19.85974985,-0.3607859612,2.305274963,2.711081505,3.576929143
19.87807767,1.559998035,3.106856346,5.347116947,6.377915794
19.89643105,0.9838215113,2.252583504,4.612607956,5.22668053
19.91477168,-0.8329116106,-0.07242488861,2.119626284,2.278552764
19.93309954,-1.701591492,-1.95462656,0.3927228451,2.621108511
19.95145293,-1.241886616,-2.617441177,0.1381499767,2.900407919
19.96979355,-0.4103025496,-2.462738991,0.2572441101,2.509901602
19.98813413,-0.205008924,-2.369127274,-0.3935651779,2.410329074
20.00647475,-0.3548915982,-2.465661049,-0.743011117,2.599518797
20.02481538,-0.28029567,-2.567729473,-0.7035657167,2.677088909
20.043156,0.09976136684,-2.276593208,-0.741720438,2.396451163
20.06149662,0.04982411861,-2.024877548,-1.072670579,2.29199339
20.0798372,-0.234905839,-1.990267754,-0.8880662918,2.192032897
20.09817782,-0.4756778479,-1.68861866,-0.7281847,1.899461858
20.11651845,-0.7017467022,-1.18441391,-0.8392312527,1.6123256
20.13485907,-1.189503193,-0.590010643,-1.147112489,1.754678736
20.15318688,-1.297395468,0.2843742371,-1.246248007,1.821328581
20.17154027,-1.118054152,1.247020721,-0.666249752,1.80249674
20.1898809,-0.506188035,1.832140923,0.8878231049,2.097902894
20.20822152,-0.3457146883,2.292618752,1.666249514,2.855171944
20.22656209,-0.6765995622,2.282608032,0.7991430759,2.511317593
20.24490272,-0.6581081152,2.684821129,-0.1097347736,2.766480165
20.26323053,0.5261434913,3.465573311,0.9616410732,3.634801081
20.28158392,1.540997744,3.82831192,1.866529942,4.5293024
20.29992459,0.3871242404,2.583954811,0.1823067665,2.619145548
20.31825235,-1.022518516,1.633020401,-1.458663702,2.4166091
20.33660574,-0.6497072577,2.166865349,-0.4451861382,2.305561896
20.35494636,0.5910039544,2.187987328,2.055797577,3.059882007
20.37328699,0.7956680655,1.34722805,2.275318146,2.761373527
20.39162756,0.5546132922,0.04286384583,2.149782419,2.220584982
20.40996819,0.9826550484,-1.045075417,2.833385229,3.175825157
20.42830881,1.769213319,-1.419494629,2.81560111,3.615617566
20.44664938,2.043896914,-1.38475132,1.612041473,2.948512934
20.46499001,1.882755876,-1.613618374,0.5259833336,2.534796325
20.48331782,1.281563759,-2.189509392,-0.5532201529,2.596615024
20.50167121,0.6482523084,-3.120171547,-1.268866301,3.430120002
20.52001183,0.2521193624,-3.938822746,-1.74901545,4.31705268
20.53835246,-0.04992562532,-4.362285614,-1.918053865,4.765601639
20.55669303,-0.03163850307,-4.180857658,-1.7054286,4.515424506
20.57503366,0.1192411184,-3.682192326,-1.179909229,3.868455061
20.59337428,0.09097349644,-3.040245533,-1.316002131,3.314095757
20.61171485,-0.1763143837,-2.358698368,-2.213066339,3.239167698
20.63005548,-0.2024803162,-1.584972858,-2.555490255,3.013912355
20.64838329,0.1275606751,-0.5889673233,-2.191590548,2.272932767
20.66673668,0.4074334502,0.7022037506,-1.781988263,1.958206908
20.68507725,0.7375431657,2.195913315,-1.399033308,2.70615953
20.70340511,1.115706444,3.164896965,-0.6069611311,3.410245663
20.72175845,1.580087185,2.656984329,0.9286108017,3.227779308
20.74009907,1.303592443,1.6124506,1.306677341,2.450868391
20.7584397,0.67874825,1.055225372,0.5528552532,1.371075747
20.77678027,0.9974092841,1.422821999,0.3262665272,1.767964244
20.7951209,1.374403715,1.964334488,0.9265146255,2.570218844
20.81344871,0.08536534756,1.782024384,0.6432600021,1.896491913
20.83180209,-2.059362411,1.799067497,-1.12407589,2.956545959
20.85014267,-1.99001646,2.484766006,-0.2410751581,3.1925452
20.86847048,0.09775806963,3.367093086,3.440463781,4.814941695
20.88682386,1.34814775,3.287508011,5.95297575,6.932757861
20.90516449,0.4268706143,2.008193016,4.415328026,4.869309939
20.9234923,-1.181843519,0.3143863678,1.26347065,1.758394431
20.94184569,-1.49906826,-0.8692865372,-0.0367846489,1.733267966
20.96018626,-0.6281540394,-1.094137192,0.09913372993,1.265520125
20.97852688,0.09368622303,-1.376478195,0.1870045662,1.392278721
20.99686746,0.3059695363,-2.143195629,0.1388056278,2.169371306
21.01520808,0.1184809208,-2.991224766,-0.2965147495,3.008219461
21.0335359,-0.1523828208,-3.674256325,-0.7259397507,3.748382129
21.05188928,-0.3625797331,-4.058337688,-0.8011057377,4.152509995
21.07022985,-0.4948402643,-4.059245586,-0.4677546024,4.115961125
21.08857043,-0.415846169,-3.625232697,-0.1450147629,3.651885735
21.10691105,-0.5126932859,-3.042520523,-0.6499872208,3.153136363
21.12525162,-0.6749971509,-2.218139648,-1.423119545,2.720484128
21.14357944,-0.478363961,-1.250299454,-1.793147087,2.237734855
21.16193282,-0.2348084748,-0.1916866302,-1.73075211,1.757094662
21.1802734,-0.06743180752,0.9373607635,-1.362938404,1.655534156
21.19860126,-0.01652520895,2.212054253,-1.308409095,2.570095613
21.21695459,-0.2818775177,3.021442413,-0.9804623127,3.18902423
21.23529517,-0.6680791974,2.674943924,-0.09212088585,2.758648413
21.25363579,-0.7649114132,2.440855026,0.3929781914,2.587913172
21.27197636,0.2411170006,3.047468185,1.618309021,3.458919461
21.29031694,1.228679419,3.149567604,3.167647362,4.632862939
21.30864475,-0.03552734852,1.711281776,2.255638599,2.831546044
21.32699814,-2.342407465,0.3204059601,-0.7417420149,2.477844613
21.34533871,-0.9557588696,1.186086655,1.062020302,1.856923178
21.36366652,2.193287373,3.33822155,3.719042778,5.457610448
21.38201991,2.508686543,3.106173515,2.903857708,4.937024576
21.40036048,0.7241214514,0.6030626297,0.9788329601,1.358731164
21.41868829,0.1963064671,-1.13849926,0.9605925083,1.502482865
21.43704168,1.270540595,-1.023885727,1.891677856,2.49821146
21.45538225,1.915835023,-0.2706165314,1.961917877,2.755499755
21.47372282,1.761515379,-0.06299495697,1.018610001,2.035797418
21.4920634,0.9410569668,-0.5060749054,-0.5121362209,1.184898111
21.51040397,0.2815420628,-1.580236435,-1.207222223,2.008431881
21.52874459,-0.03206992149,-2.428970814,-1.430823088,2.8192521
21.54708517,-0.1607043147,-2.883000851,-1.456466317,3.234008954
21.56542574,-0.334015429,-3.583870411,-1.465659261,3.886367262
21.58376631,-0.6452550888,-3.919020653,-1.901639462,4.403556477
21.60210688,-1.046429038,-3.702916145,-2.301963091,4.483930841
21.62044751,-0.6772062182,-2.806408882,-2.217211962,3.640132959
21.63877527,0.07768142223,-1.83096981,-1.855316401,2.607812071
21.65712866,0.2603478432,-0.7965669632,-2.243264675,2.394689193
21.67546923,-0.2217785716,0.3528223038,-3.108226538,3.136039146
21.69379704,-0.4888194501,1.389671326,-2.419696569,2.832854097
21.71215038,0.03836911917,2.084035873,-0.3130130768,2.107760636
21.73049095,0.7058113813,2.343536377,1.175422192,2.715133475
21.74883152,0.782526195,2.115026474,1.012322187,2.4719386
21.76717209,0.09893712401,1.572538376,0.808293581,1.770876622
21.78551267,0.8077963591,1.464901924,2.184747696,2.751653158
21.80385324,1.809973717,2.66527462,2.709978819,4.209949982
21.82219381,0.5054504275,3.114686012,-0.3222773075,3.171846742
21.84053438,-2.911839962,2.326557159,-4.40144062,5.767526308
21.8588622,-2.541895866,1.860629082,-1.137476206,3.349183079
21.87721553,1.492839098,3.087501526,6.694595814,7.521891209
21.8955561,3.347810745,3.363483429,9.492366791,10.61253433
21.91388392,1.428478479,2.510332108,5.782896042,6.464070288
21.93223725,-0.7351686358,0.9760780334,1.346917629,1.818622652
21.95057782,-0.9630492926,-0.6952428818,-0.07556581497,1.190183514
21.96890564,-0.6279921532,-1.719626427,-0.9680819511,2.070910876
21.98725897,-0.4184472263,-2.321657658,-1.913366079,3.037459813
22.00559954,-0.3393172622,-2.706284523,-2.172915459,3.487215754
22.02394011,0.07963097095,-2.926898479,-1.804543376,3.439397127
22.04228074,0.6125836372,-2.651622772,-1.014604211,2.904442071
22.06062126,0.9467955828,-2.447903633,-0.3661997318,2.650048361
22.07896183,0.8112653494,-2.62127924,-0.1189045906,2.746524098
22.09730241,0.4188563824,-2.995591164,-0.4206874371,3.053847575
22.11564298,0.009909451008,-3.369729996,-0.5953216553,3.421927281
22.13398355,-0.4752289951,-3.738005161,-1.045426369,3.910427275
22.15232412,-0.8981187344,-2.987151146,-1.721743226,3.562876502
22.1706647,-0.9295455217,-1.083427429,-1.894721031,2.3723064
22.18899246,-0.5169667006,0.4427680969,-1.002212286,1.211498091
22.20734579,-0.5758815408,1.243020058,-0.7374989986,1.555841633
22.22568642,-0.5830170512,1.771706581,-0.4387326241,1.916073957
22.24401418,-0.3188053966,2.767876625,-0.1727845669,2.791528685
22.26236751,-0.2543839812,3.949176788,-0.07910346985,3.958151826
22.28070808,-0.301528722,3.953889847,0.4397392273,3.989678568
22.2990359,0.4303839207,3.346019745,2.249491215,4.05478596
22.31738918,1.316034436,2.665705681,3.265734911,4.416215339
22.33572975,0.02501296997,1.737732887,1.011631966,2.010905386
22.35405756,-1.711588502,1.435128212,-1.996758223,2.996025965
22.3724109,-1.002691507,1.907588005,-0.8243008852,2.307326203
22.39075142,0.8441407681,2.429656982,2.283221006,3.439317498
22.40907923,1.645325184,2.117003441,3.364308834,4.302019579
22.42743256,1.25016582,1.189763069,2.949517012,3.41732371
22.44577314,1.136129379,-0.7450275421,3.956559658,4.183326467
22.4641009,1.419303894,-1.994583607,3.825454473,4.541683524
22.48245423,1.213546395,-2.244476795,1.852816582,3.153299894
22.5007948,1.239690065,-2.110551357,-1.075231075,2.673458501
22.51912256,0.226574719,-2.199127197,-2.148813486,3.083001124
22.5374759,-0.4246265292,-3.243629932,-2.035638094,3.852955395
22.55581647,-0.1374723911,-3.926952839,-2.00171113,4.409841801
22.57415704,0.4146161377,-4.044393539,-1.703691483,4.408127756
22.59249756,0.7189894915,-4.12863493,-1.327239394,4.395922734
22.61083814,0.3681468368,-3.532976151,-0.9228761196,3.670034456
22.6291659,0.102319479,-2.234697342,-1.385296822,2.631233317
22.64751923,0.003191918135,-1.482436657,-1.832926512,2.357381647
22.6658598,0.03214973211,-0.7741508484,-2.073361397,2.213407017
22.68418756,0.09494918585,-0.1692743301,-1.380672216,1.394247079
22.7025409,0.04206204414,0.7395391464,-0.7768625021,1.073407058
22.72088147,0.5165190697,1.626502037,-0.7226177454,1.853234263
22.73920923,0.8521487713,2.473558426,-1.042970896,2.816458255
22.75756256,1.093239784,2.462331772,-0.1251683235,2.697020224
22.77590314,0.9397628307,1.882650375,0.7096598148,2.220617857
22.79424366,0.6967566609,1.858283043,0.4258406162,2.029784703
22.81258423,1.38354218,2.098361969,0.09612417221,2.515263758
22.83092475,2.155117989,2.983463287,0.730871439,3.7523006
22.84925256,0.9424510598,2.321903229,0.7035980225,2.602786734
22.86760584,-1.855450749,2.006896973,-1.817270637,3.282195227
22.88594642,-2.744721651,2.938081741,-2.707829714,4.847490384
22.90427418,-0.5204108953,3.999686241,0.9888828993,4.152855273
22.92262751,1.2700845,3.912865639,5.226285458,6.651142145
22.94096808,0.9045557976,2.310868263,5.728227615,6.242669696
22.95929584,-1.017269015,-0.9138422012,3.434826136,3.697022369
22.97764918,-2.699796677,-3.162117004,0.7073631287,4.217611722
22.9959897,-2.378339767,-3.844909191,-0.2740263939,4.529339599
23.01431751,-0.7064135075,-3.282699108,0.5561075211,3.403584736
23.03267079,0.4101796746,-2.914850235,1.020168781,3.115340046
23.05101131,0.5349556804,-2.971984863,0.5928022861,3.077383005
23.06935188,0.1648956239,-3.402101994,0.08978295326,3.407278903
23.08769241,0.02802950144,-3.677087784,-0.3985848427,3.698733581
23.10603298,-0.01806953549,-3.801749229,-0.8525899649,3.896220394
23.1243735,-0.05637028813,-3.433256149,-1.020588398,3.582181748
23.14271407,0.01027268171,-2.776759624,-1.158985734,3.008944578
23.16105459,-0.2010185421,-2.090120316,-1.501007199,2.58109163
23.17938235,-0.4601126611,-1.176642418,-1.973249435,2.343054497
23.19773569,-0.559175849,0.5468921661,-2.196702242,2.331795319
23.21607621,-0.141092211,2.446063995,-1.277875066,2.763349555
23.23440397,0.115721941,3.552231789,0.2585761547,3.56351005
23.2527573,-0.2880778909,3.629668236,0.6583201885,3.700117004
23.27109782,-0.8118611574,3.443820953,0.3836307526,3.558959659
23.2894384,-0.3947501779,3.768040657,0.8456287384,3.88188692
23.30777892,0.6913619041,3.97862339,2.043113947,4.525675636
23.32611944,0.7389873862,3.205187798,2.145763636,3.927293312
23.3444472,-0.5116915703,2.004611969,0.04178142548,2.069309812
23.36280053,-0.6812843084,2.002841949,-1.096266031,2.382713452
23.38114105,0.6023404598,2.634741783,1.102057695,2.918768483
23.39946881,1.268803,1.606658936,3.34444356,3.921290185
23.41782215,0.4178545177,-0.5307283401,2.800209045,2.880528713
23.43616272,-0.1040331423,-1.991831779,1.627233982,2.574122601
23.45450324,0.9396095276,-1.869260311,1.887908697,2.818013382
23.47284376,2.255187511,-0.8765583038,2.257899284,3.309431122
23.49118428,2.968133211,0.04122447968,2.194961309,3.691797579
23.5095248,2.346348763,-1.180765152,0.6886012554,2.715461388
23.52786538,1.480133891,-2.045627117,-1.239257574,2.812675945
23.5462059,0.944009006,-3.039774895,-2.566014051,4.088497588
23.56454642,0.7836295962,-3.391434193,-1.947945952,3.988783607
23.58288694,0.5715710521,-3.536311626,-1.570939422,3.911527074
23.60122751,0.1535805762,-3.499887466,-1.599961162,3.851321201
23.61956803,0.01413291693,-3.200246334,-1.46521759,3.519749838
23.63790855,-0.02512724698,-2.853369713,-1.750426292,3.347587535
23.65624907,0.1910827756,-2.363695145,-1.704226136,2.920266099
23.67458959,0.5171529055,-1.811912537,-1.74894762,2.570854322
23.69293017,0.4956368208,-1.036345482,-1.751227021,2.094388669
23.71127069,0.4778570235,0.04825496674,-1.929795742,1.988664749
23.72959845,0.7405459881,1.131568909,-0.9760961533,1.667819012
23.74795173,1.156920433,2.154881477,-0.04574799538,2.446236282
23.76629225,1.322195768,2.775414467,0.362506628,3.095567503
23.78463277,1.065377593,2.689453125,-0.1169316769,2.895144305
23.80297334,0.6686826944,2.718338013,-0.6202920675,2.867274027
23.82131386,0.9555214643,3.021190643,0.1091845036,3.170573359
23.83965439,0.6967402697,3.449352264,0.1355884075,3.521627786
23.85799491,-1.498881221,3.556482315,-1.402701735,4.106431971
23.87633543,-3.120952606,3.978701591,-1.627741218,5.31224557
23.89466319,-1.837524891,4.11251545,2.614209652,5.208010479
23.91301647,0.02391079068,4.743121147,7.234928608,8.651124892
23.93135699,0.6648118496,3.335222244,8.643562317,9.288533347
23.94968475,-0.7084175944,0.393406868,5.631808758,5.689806177
23.96803803,-2.564187288,-2.660129547,1.652297497,4.04739826
23.98637855,-2.757616997,-3.539290428,-1.231452227,4.652687699
24.00470631,-1.292398453,-3.018521309,-2.053625822,3.872872793
24.02305965,0.2346878052,-2.311246872,-1.546367049,2.790733151
24.04140017,1.156759501,-1.901936531,-1.407857776,2.633916974
24.05974069,1.220983267,-2.401274204,-1.920350075,3.308271807
24.07808121,0.6300256848,-3.291670322,-2.519974232,4.19312485
24.09642173,0.2998723686,-4.146862507,-2.347015381,4.774397688
24.11476225,-0.03697061539,-4.215348244,-1.728436232,4.556096953
24.13310277,-0.125132978,-3.636671543,-0.8544903994,3.737805776
24.15144329,-0.3815072477,-3.126179218,-0.8406605721,3.259640238
24.16978381,-0.9765943289,-2.775902748,-2.090526819,3.609664102
24.18812433,-1.280776858,-1.809455872,-2.490850449,3.334494845
24.2064648,-0.744628787,0.1781139374,-1.723502636,1.885910375
24.22479256,-0.07761698961,2.328913689,-0.7695103884,2.453978322
24.24314584,0.2119755149,3.495602608,0.1694521904,3.506121112
24.26148636,-0.2545635104,3.675041199,0.5433444977,3.723701604
24.27982689,-0.5838220119,3.102127075,0.3759899139,3.178900588
24.29816741,-0.2918590307,2.973938942,0.5996603966,3.047800373
24.31650793,1.036324382,3.680762291,1.89893198,4.269417048
24.33484845,1.19781971,3.744581223,2.245870829,4.527758426
24.35318897,-0.05355203152,2.737850189,0.6552746296,2.815683988
24.37152949,-0.4096145332,2.534450531,-0.4631737471,2.608783908
24.3898572,0.828065753,3.241584778,1.582645178,3.701125575
24.40821053,1.581980467,2.895256042,3.843464375,5.065312246
24.426551,0.7816335559,1.473644257,3.522294283,3.897324137
24.44487876,-0.03636044264,-0.5594177246,2.272388935,2.34051741
24.46323204,-0.03809225559,-1.904871941,1.455123663,2.397367933
24.48157256,0.5507367253,-1.925099373,1.138066173,2.303152871
24.49991308,1.07657969,-1.638737679,1.079250336,2.238139025
24.5182536,1.131005287,-1.717217445,0.7340610027,2.183312683
24.53659407,0.8840807676,-2.422422409,0.4915137291,2.625131402
24.55493459,0.5724170208,-3.068662643,0.3894622326,3.145796003
24.57327511,0.3748929501,-3.320272446,0.2940466404,3.35428342
24.59161564,0.2359594703,-3.450217247,0.1156067848,3.460208209
24.60995616,-0.1320181489,-3.804480076,-0.417699337,3.829617497
24.62829668,-0.5035527349,-4.078231812,-1.237692356,4.29155245
24.64663715,-0.4560081661,-3.454654694,-1.936440468,3.986525327
24.66497767,-0.1901294887,-2.740435123,-2.042464733,3.423126652
24.68331819,-0.004754602909,-2.092886448,-2.026482105,2.913215751
24.70165866,0.1657547355,-1.343956947,-2.192373037,2.576857474
24.71998642,0.3171232939,-0.2844018936,-2.324777603,2.363481018
24.7383397,0.6979180574,0.4801750183,-1.646160722,1.85135161
24.75668022,0.8681994677,1.335298538,-1.657544374,2.298748759
24.77500793,0.8632228971,2.183420181,-1.554203153,2.815674857
24.79336121,0.8488997817,3.176472664,-1.031912088,3.446077768
24.81170173,0.9601887465,4.086680412,-0.1498041153,4.200638106
24.83002944,1.732036829,4.482415199,1.112886429,4.932597064
24.84838272,1.93647325,4.837467194,2.023461342,5.589759682
24.86672324,0.5534718037,4.00110817,0.8965544701,4.13751224
24.88505095,-1.427297592,2.98453331,-1.224414349,3.527578205
24.90340423,-1.693235636,2.97293663,-0.418183744,3.446777737
24.92174475,-0.07030299306,3.004715919,3.373939514,4.51848737
24.94007246,0.37526232,2.065181732,5.035705566,5.45565101
24.95842574,-0.8710187674,0.07570838928,3.329216957,3.442105606
24.97676621,-1.943146944,-1.62963295,1.057023883,2.747512163
24.99509397,-1.686274529,-2.394334793,0.1589211226,2.932851311
25.01344725,-0.7803442478,-2.497420311,-0.454379797,2.655655541
25.03178772,-0.1684575081,-2.074056625,-1.075547338,2.342411341
30.05704944,-0.1836984456,-2.963220596,-0.03990757465,2.969177333
30.07540256,-0.3403900266,-3.517570972,-0.5760166645,3.580637669
30.09374293,-0.5242474675,-3.7419734,-0.6366546154,3.831778886
30.11208324,-0.7894286513,-3.651742935,-0.9728604555,3.860684075
30.13042355,-0.8726490736,-3.384735107,-0.7458459139,3.574106081
30.14876386,-0.9581522942,-2.855820656,-0.3689740896,3.03478324
30.16709142,-0.9163348079,-1.691216469,-0.3124796152,1.948724233
30.18544454,-0.7849217057,-0.2394590378,-0.9786063433,1.277150379
30.20378485,-0.9875035286,0.8204975128,-1.54068923,2.00551806
30.22211241,-0.9290351868,1.695841789,-0.9746068716,2.165373942
30.24046548,-0.4988159537,2.492887497,0.1017512083,2.544338566
30.25880584,-0.2594769001,2.79718399,0.4173774719,2.840030016
30.27714616,-0.2102127224,2.735315323,0.6166791916,2.811837927
30.29548647,0.125130713,2.7915802,1.755780697,3.300203564
30.31382678,0.6424203515,2.899260521,2.54026413,3.907858406
30.33216715,0.1525125504,2.463415146,0.9965372086,2.661721373
30.35050746,-0.286883235,2.01279068,0.2784247398,2.052108342
30.36884777,-0.1779460758,2.541031837,0.7725087404,2.661818431
30.38718808,0.1064496189,2.444709778,2.073672295,3.207499681
30.40552845,0.05081015825,1.237729073,1.813380361,2.19611094
30.42386871,-0.1587492228,-0.3783893585,0.2288081646,0.4698223053
30.44219626,0.279545188,-1.178622246,0.07934391499,1.213915717
30.46054938,1.169677258,-1.274712563,0.7481908798,1.88489432
30.4788897,1.659337997,-0.7701644897,0.8104350567,2.000840052
30.49723001,1.844709277,-0.6130151749,0.8245689869,2.111552494
30.51557032,1.769923091,-0.976149559,0.7316465378,2.149605165
30.53391064,1.302441001,-1.634197235,-0.1585819721,2.095734097
30.55225095,0.5814105868,-2.501229286,-1.201206207,2.834974879
30.57059131,0.07520918548,-3.068485737,-1.738371253,3.527491425
30.58893157,0.1503519118,-2.996430397,-1.421695352,3.320002785
30.60727189,0.3396153152,-2.989388466,-0.9408096075,3.152285628
30.62561225,0.4426499009,-2.699116707,-1.169620037,2.974757295
30.64395256,0.1594620794,-2.431962013,-2.004629135,3.155694117
30.66229288,-0.09653574228,-2.102516174,-2.517374754,3.281321238
30.68063319,-0.1113234386,-1.245100975,-2.725988388,2.998946821
30.6989735,0.3728001416,0.1410770416,-2.282590628,2.31713242
30.717301,1.020950913,1.273690224,-1.315508604,2.096470949
30.73565413,1.190771699,1.847991943,-0.4181194305,2.237819322
30.75399444,0.8296650648,1.601919174,0.09246993065,1.806388621
30.77233475,0.1708063483,1.323943138,-0.4100782871,1.396482883
30.79067506,-0.1166740954,1.396514893,-0.4384301901,1.468362258
30.80901538,0.3205877841,2.162063599,1.11438942,2.453397504
30.82734288,0.8230214119,2.963924408,3.550674915,4.697819121
30.845696,-0.3014565706,2.331701279,2.827490807,3.677283125
30.86403626,-2.117585182,1.422558784,-0.7428363562,2.656999502
30.88237657,-2.641622305,1.996685028,-1.561247587,3.660930692
30.90071688,-0.5257123709,2.369869232,3.509462357,4.26719811
30.9190572,0.9467641115,2.097933769,6.484126091,6.88052175
30.93738475,0.08474558592,1.004244804,3.775510788,3.907706636
30.95573782,-1.211674333,-0.2469415665,-0.1183447838,1.242231989
30.97407814,-1.418023109,-0.4075546265,-1.956299305,2.450305549
30.99241845,-0.3346132934,0.08934593201,-0.9273486137,0.9899112097
31.01075876,0.7007116079,0.5109100342,0.6372666359,1.076166616
31.02909907,1.004412293,-0.01193237305,0.9023303986,1.350254267
31.04742657,0.6290051937,-1.380864143,0.3111977577,1.54896009
31.06577965,0.08271170408,-3.000356197,-0.2704334259,3.013654389
31.08411996,-0.3462062478,-4.333612919,-0.5956599712,4.388037203
31.10246032,-0.4428538382,-4.446981907,-0.8996326923,4.558629902
31.12080058,-0.1665184051,-3.816328049,-1.266386151,4.024403315
31.1391409,-0.1533448845,-3.087701797,-1.533084273,3.450762877
31.15748121,-0.3807056546,-2.535545826,-1.739240408,3.098207002
31.17582152,-0.442869246,-1.844667435,-1.821374297,2.629892668
31.19416178,-0.5003254414,-0.8295316696,-1.672507882,1.93280391
31.21248933,-0.123273015,0.7450695038,-0.8242806196,1.117928147
31.23084241,-0.07571728528,2.164685249,-0.2144641876,2.176600612
31.24918272,-0.2572134137,2.539242744,0.1809151173,2.558640798
31.26752303,-0.737020731,2.763350487,-0.0656440258,2.860701769
31.28586329,-1.204913259,2.781445503,-0.6233489513,3.094643592
31.3042036,-0.8913751841,3.201803207,-0.4811863899,3.358218849
31.32253116,-0.01136790216,3.57105732,1.0062356,3.710133379
31.34088423,0.4419902563,2.742967606,2.127077341,3.499097696
31.35922449,-0.06624238193,2.384393692,0.6390476227,2.46943378
31.3775648,-0.04471673071,2.803523064,0.581969738,2.863639281
31.39590511,0.5317671299,2.813984871,2.318469048,3.68464189
31.41424543,0.4647847414,1.457616806,2.881261826,3.262260155
31.43257293,0.06648738682,-0.2084970474,1.725391865,1.73921496
31.450926,0.1817859709,-1.291714668,0.55722332,1.418474798
31.46926631,0.7940565944,-1.562984467,-0.1633601189,1.760719412
31.48760657,1.218112707,-1.650693893,-0.7753804922,2.193126491
31.50594689,1.456255555,-1.480222702,-0.9789706469,2.29567485
31.5242872,1.784986377,-1.229961395,-0.4851181507,2.221333163
31.54262751,1.781191826,-1.458978653,0.06034374237,2.303237807
31.56096777,1.166194677,-2.297066689,-0.296277523,2.593126639
31.57930808,0.675159514,-2.861723423,-1.0109092,3.109218347
31.5976484,0.4797184467,-2.972899914,-0.7498732805,3.103316552
31.61598866,0.4033843279,-2.961303711,-0.6291594505,3.054157854
31.63432897,0.1546985209,-2.60482502,-1.081686616,2.824728474
31.65266923,-0.1515759975,-2.398882389,-1.425087571,2.794366938
31.67100954,-0.06599939615,-2.132705212,-1.439853787,2.574095253
31.6893498,0.2127935588,-1.095962524,-1.547518134,1.908200023
31.70767735,0.4041260481,-0.03093242645,-1.425817251,1.482305472
31.72603043,0.3046295047,0.4756298065,-1.683344245,1.775576159
31.74437069,0.3435398638,0.9541225433,-1.66945219,1.953315152
31.762711,0.4519042969,1.578133583,-0.7170709372,1.79134414
31.78105126,0.5354458094,1.94346714,0.7761323452,2.160126884
31.79939157,0.5132464767,2.221660614,1.566999078,2.766709949
31.81773183,0.8462181687,2.563059807,1.470584631,3.073756646
31.83607215,0.8192903996,2.501852036,1.539069533,3.049464772
31.85441241,-0.07275956869,1.135892868,1.531438828,1.908101529
31.87273991,-1.468498468,0.4219665527,-0.9263550043,1.786806402
31.89109298,-1.647847891,1.345415115,-1.557785988,2.636710391
31.90943329,-0.4626759887,2.808373451,0.7448890209,2.942089422
31.92776079,0.5034837127,3.332214355,3.648115635,4.966477227
31.94611386,0.1160396039,2.01687336,3.522209644,4.060443833
31.96445413,-0.8401139975,0.3389377594,1.348763466,1.624756357
31.98278162,-1.188226938,-0.3970880508,-0.1599980593,1.262997053
32.0011347,-0.7767214775,-0.3611297607,0.1652340889,0.8723607407
32.01947496,0.1609210968,0.2942533493,1.453321457,1.491517311
32.03781527,0.9510535598,0.4538354874,2.075634003,2.327815722
32.05615553,1.068174124,-0.435128212,1.429941773,1.837135269
32.07449579,0.3546464443,-2.191400528,-0.3107515574,2.241556804
32.09282329,-0.273195684,-3.675319195,-1.72744751,4.070218909
32.11117636,-0.6475338936,-4.424519539,-2.154129028,4.963461007
32.12951662,-0.7369523048,-4.665492058,-1.611437082,4.9906557
32.14785694,-0.7055366039,-4.199542999,-0.7957391739,4.332106201
32.1661972,-0.6294745207,-3.197668552,-0.265709877,3.269850774
32.18453746,-0.8771402836,-2.124375343,-0.9885059595,2.501897222
32.20286501,-1.168381333,-1.057991982,-1.48269403,2.163987883
32.22121803,-1.056533694,0.03484916687,-0.9745961428,1.437816245
32.23955834,-0.7278811336,1.056686401,0.1306302547,1.289752441
32.25788579,-0.9539905787,1.430902481,0.01201605797,1.71980357
32.27623886,-1.267043948,2.076818466,-0.9017727375,2.594565354
32.29457912,-0.7174220681,3.323369026,-0.1354683638,3.402620723
32.31290663,0.4207717776,4.452531815,1.92402494,4.868671319
32.33125965,1.141257286,4.024284363,3.461857796,5.429713825
32.34959996,0.07129276544,3.001710892,1.052976608,3.181840768
32.36792741,-0.6507354379,2.704091072,-1.153494358,3.010998899
32.38628048,0.01113386638,3.422825813,0.3649642467,3.442246274
32.40462074,0.9727910757,3.11909008,3.428171873,4.735758418
32.42294824,1.085368156,1.452752113,3.784206152,4.196275603
32.44130131,0.002625107765,-0.56457901,1.068798304,1.208753971
32.45964152,-0.03880178928,-1.475367546,-0.5316108465,1.568701714
32.47798183,1.024556875,-1.176439285,0.2805833817,1.585071991
32.49632209,1.483577251,-0.9455652237,0.7856900692,1.926759959
32.51466235,1.335498571,-1.111018181,0.447371006,1.793894827
32.53300261,1.126527667,-1.463630676,-0.0848107338,1.848911085
32.55134288,0.7907775044,-2.254267693,-0.352545023,2.414816739
32.56968314,0.1783382893,-3.3494277,-0.9693660736,3.491438249
32.5880234,-0.4387747943,-4.054055214,-1.830720901,4.469835122
32.60636366,-0.579959631,-4.061493397,-2.164310932,4.638569132
32.62470392,-0.5831420422,-3.906405926,-1.94222343,4.401396795
32.64304418,-0.5580450892,-3.432716846,-1.721671581,3.880607208
32.66138444,-0.3846854866,-2.819445133,-1.442837,3.190459589
32.6797247,-0.1082338691,-2.497263908,-1.219415545,2.78118965
32.69805215,0.540897131,-1.54708004,-1.924326777,2.527658977
32.71640522,1.366291165,-0.7114610672,-2.227204561,2.708019305
32.73474548,1.068071842,0.891951561,-3.151824474,3.445337801
32.75307293,0.5002259612,2.940091133,-2.813286543,4.099871102
32.771426,0.7872439623,4.750775337,-0.4974479675,4.841185169
32.78976621,1.182455182,5.781544685,1.829014301,6.178167408
32.80809371,1.135922551,5.106212616,3.13337636,6.097686015
32.82644673,0.7150303721,4.265277863,2.608657122,5.050639133
32.84478699,0.06545585394,3.438149452,2.257723331,4.113693081
32.86311444,-1.632187605,1.944440842,0.5386302471,2.595189609
32.88146751,-3.368950129,0.6481494904,-1.764291763,3.85780354
32.89980772,-2.81735301,0.8695087433,-0.7006614208,3.03058573
32.91813522,-0.6206433177,1.747725487,2.994746447,3.522534426
32.93648824,0.2544546723,1.425070763,4.370299339,4.603812569
32.9548285,-0.6340837479,0.1206617355,1.959293365,2.06287468
32.97315595,-1.270196915,-0.9957036972,-0.3396718502,1.649303799
32.99150897,-0.7586616278,-1.0575037,-0.5186469555,1.40102684
33.00984923,0.1210589707,-0.700009346,0.442460537,0.8369227477
33.02818949,0.6464024782,-0.547498703,1.04480195,1.345065838
33.0465297,0.4779188037,-1.429434776,0.95429039,1.783917126
33.06486996,0.3031484485,-2.804794312,0.4613289833,2.858600102
33.08319746,-0.004832714796,-3.833118439,-0.4076182842,3.854733841
33.10155048,-0.07724502683,-4.309771538,-1.216456652,4.478823985
33.11989069,0.1052723527,-3.952203751,-1.261025548,4.149841224
33.13823095,0.326552242,-2.938864708,-0.7124705315,3.041574657
33.15657121,0.1236493289,-2.124547482,-0.6394963264,2.22214912
33.17491142,-0.5179567337,-1.602142334,-1.295265317,2.124347306
33.19325168,-0.5789037347,-1.398280144,-1.560041785,2.173487351
33.21159189,-0.2044155002,-0.2567386627,-2.020111799,2.04659525
33.22993215,0.2063084841,1.494382858,-1.402592659,2.059856666
33.24825959,-0.1968505979,2.689488411,-0.5924612284,2.760997714
33.26661261,-0.8239222169,3.204885483,0.2382133007,3.317662483
33.28495282,-0.5551168919,3.003200531,1.27885747,3.311018668
33.30328032,0.05475696176,2.777861595,2.138998747,3.506398295
33.32163334,0.4885644317,2.332324028,2.809234619,3.683779271
33.33997355,-0.6838310957,1.596673012,1.59737277,2.359785889
33.358301,-2.058214664,1.502944946,-0.2357414961,2.559426727
33.37665402,-1.752709866,2.499376297,-0.1527141333,3.056500508
33.39499428,-0.53443712,3.276870728,1.38802886,3.598628755
33.41333449,-0.1940828115,2.920872688,1.248615026,3.182484074
33.4316747,-0.1190983355,1.462291718,-0.1417816877,1.473968632
33.45001496,0.577811718,0.3139867783,-0.7496623993,0.9972200315
33.46835517,0.8663208485,0.2899055481,-0.7268800735,1.167438084
33.48669538,0.6392675638,-0.6167869568,0.2787430286,0.9310138797
33.50503564,1.36167562,-2.161045551,1.258921385,2.847658937
33.52337584,2.170584917,-2.280406952,1.565046549,3.515830691
33.5417161,2.324513674,-2.388084888,0.8773171902,3.446157093
33.56005631,1.908153772,-2.855237007,-0.02948522568,3.434282831
33.57838376,1.223424554,-3.471149921,-1.03128016,3.822196775
33.59673678,0.8711922169,-3.995754242,-1.658025146,4.412944054
33.61507699,0.8003233671,-4.195196629,-1.837097406,4.64920629
33.6334172,0.618271172,-4.17043829,-1.923537016,4.634092082
33.65175746,0.4053410888,-3.780033112,-1.781067252,4.198232042
33.67009767,0.2580191791,-2.865647316,-1.547393203,3.266945693
33.68842511,0.3050423861,-1.493411064,-1.43301177,2.092092301
33.70677808,0.4862157106,-0.1465921402,-1.260655284,1.359097759
33.72511834,0.7135875225,1.102155685,-1.025841117,1.666224566
33.74344574,0.7659238577,2.187239647,-0.2757695913,2.333817794
33.76179876,0.8855183125,3.113360405,0.5165687799,3.27780399
33.78013897,1.26345551,3.65750885,1.411587596,4.119013275
33.79846642,1.327276349,3.611644745,2.168104887,4.416595869
33.81681938,1.226749659,3.052594185,2.559039593,4.167964686
33.83515959,-0.01290905476,2.348509789,1.628361702,2.857836017
33.85348704,-1.987450123,1.52854538,-0.1294908524,2.510612843
33.87184006,-3.226528168,1.717848778,-1.601117134,3.990622071
33.89018027,-1.984538317,2.763014793,0.6115888357,3.456397544
33.90850772,0.02141547203,3.648049355,4.494556427,5.788761542
33.92686069,0.03050804138,2.870352745,4.330081463,5.195138217
33.9452009,-1.359789133,1.158813477,1.088180184,2.091891793
33.96352834,-2.053526878,-0.5364961624,-1.197986484,2.437205857
33.98188131,-1.394608021,-1.19688797,-1.555347204,2.407608205
34.00022152,-0.4264209867,-1.308004379,-0.6931051016,1.540488558
34.01856173,-0.06977437437,-1.819002151,-0.2353420258,1.835489896
34.03690194,-0.1237306818,-2.758221626,-0.1112070084,2.763234123
34.05524215,-0.244787693,-3.81746912,-0.1508963108,3.828284367
34.07358235,-0.3114886284,-4.065438271,-0.00456905365,4.077356297
34.09192256,-0.2805230319,-3.686619282,0.095682621,3.698514575
34.11026277,-0.3652027249,-3.168788433,0.1134228706,3.19177974
34.12860298,-0.4982951581,-2.822931767,-0.2290841341,2.875712323
34.14694319,-0.729853332,-2.557102203,-0.8418062925,2.789282237
34.1652834,-1.073482037,-1.906625748,-1.550695062,2.681835304
34.18361084,-1.210651159,-0.7124061584,-1.529863834,2.076940566
34.20196381,-0.8294098973,0.8355674744,-1.154476166,1.648911459
34.22030402,-0.3480454981,2.097973824,-0.5282766819,2.191279554
34.23863142,-0.51543504,2.671482086,-0.01048111916,2.720771889
34.25698444,-0.8738610744,3.290084839,-0.1575789452,3.407803185
34.27532459,-0.8550802469,3.794805527,-0.1274306774,3.892036715
34.2936648,-0.4296293855,3.809388161,0.2379106283,3.840914088
34.31200501,0.3722597957,3.319179535,1.917082667,3.851069474
34.33034522,0.3599119186,2.127432823,2.535251617,3.329115163
34.34868543,-0.8390437365,1.48171711,0.668676734,1.829373816
34.36702564,-1.030557275,1.767168045,0.06665253639,2.046795973
34.38536584,-0.2352518588,2.529671669,0.5356165171,2.596433562
34.403706,0.4949673116,2.256198883,1.831226945,2.947680132
34.42204621,0.4569256604,0.9153490067,2.137494564,2.369710504
34.44038642,0.7077956796,-0.1909923553,1.991877556,2.12250536
34.45871381,1.362341762,-0.9762830734,1.7056216,2.391286005
34.47706678,1.605356693,-1.443808556,0.9715958834,2.367646895
34.49540699,1.201582432,-1.963253021,-0.2218228579,2.312437706
34.51373444,0.65701437,-2.642625809,-1.16081214,2.960172946
34.53208741,0.516767621,-3.262105465,-0.942286253,3.434571912
34.55042756,0.54538697,-3.655292988,-0.6245759726,3.748160738
34.56876777,0.3924822807,-3.685823441,-0.6450185776,3.762364382
34.58710798,0.2690692246,-3.307736874,-0.6079517603,3.373888975
34.60544814,0.1231679916,-3.04230547,-1.000416994,3.204937922
34.62378834,0.1054687425,-2.552338123,-1.591815472,3.00988871
34.64212855,0.1423863024,-1.993542671,-2.13135004,2.921838332
34.66046871,0.2447399646,-1.123314857,-2.330848932,2.598959535
34.67879616,0.6134554148,-0.02701377869,-1.994054079,2.086458473
34.69714912,0.9106549025,0.9048719406,-1.576134324,2.03280225
34.71548928,0.9988341928,1.419576645,-1.040394306,2.02368177
34.73382949,1.012387633,1.698087692,-0.5931488276,2.064038774
34.7521697,0.8991017342,2.147544861,-0.3127390146,2.349071848
34.77050985,0.6549291611,2.064078331,0.8232702017,2.316705719
34.78885006,0.4054746032,1.826191902,1.785190344,2.585786356
34.80719022,0.481394887,1.92373085,1.725342035,2.628552179
34.82553043,0.5091195703,2.488464355,1.525439501,2.962874155
34.84385788,-0.344061166,2.280403137,0.4428122044,2.348339669
34.86221079,-1.628822207,2.35164547,-1.540988445,3.249298938
34.880551,-1.417460442,2.775830269,-1.567558527,3.488791699
34.8988784,0.1964450777,3.441509247,1.41478312,3.726149197
34.91723136,1.23636508,3.238670349,3.910894871,5.226153742
34.93557152,0.335175097,1.415620804,3.269387484,3.578438084
34.95389892,-1.111952901,-0.7798423767,0.5023294687,1.448077443
34.97225189,-1.779743671,-2.112382889,-1.541146278,3.16303349
34.99059209,-1.338231444,-2.758421898,-1.532877564,3.427749756
35.00893225,-0.4724751115,-2.43778944,-0.3978292942,2.514819722
35.02727241,0.3743084371,-1.875121117,0.9217333794,2.122681896
35.04561261,0.4135825634,-2.389549732,1.515016079,2.859418154
35.06395277,-0.04609832168,-3.290930748,0.699324131,3.364729481
35.08229298,-0.5314016342,-3.745943546,-0.342995882,3.798963928
35.10063314,-0.70857054,-3.880727291,-0.8735496998,4.040446212
35.11897329,-0.7149397135,-3.515185356,-1.26728344,3.804428235
35.1373135,-0.5653247833,-2.733790398,-1.116093755,3.006470908
35.15565371,-0.4435002208,-1.920125961,-0.8106113672,2.130884075
35.17398105,-0.5438202024,-0.9253578186,-1.442183495,1.797754359
35.19233402,-0.3508694768,0.3927268982,-1.791833401,1.867621681
35.21067418,-0.1559356153,1.97278595,-1.468695045,2.464399613
35.22900162,0.0648932308,2.806241035,-0.09783053398,2.80869555
35.24735454,-0.02331706882,3.582282066,0.7607505322,3.662243829
35.2656947,0.08127999306,4.610454559,1.624910593,4.889093179
35.28402209,0.7792634964,5.234225273,2.739788055,5.95909426
35.30237506,1.776813507,4.689351082,4.066026688,6.455978069
35.32071522,1.634835243,2.922504425,4.306256771,5.455049566
35.33904261,-0.1368324459,1.133392334,1.451097846,1.846344025
35.35739553,-0.9711869955,0.7029457092,-0.2272084951,1.220229712
35.37573574,-0.2105255574,0.957239151,0.7506736517,1.234560138
35.3940759,0.3613216281,0.8513793945,2.0768466,2.273475751
35.41241605,0.4084055126,-0.02760505676,1.824806809,1.87015427
35.43075621,0.2799835205,-1.053953171,0.7003065348,1.296008218
35.44909636,0.6681780815,-1.425190926,0.2682788372,1.596748151
35.46743652,1.500255942,-1.358570099,0.6071472168,2.113080299
35.48577673,2.151979446,-1.176795959,0.7136600018,2.554442183
35.50411688,2.191839457,-1.125997543,0.002099990845,2.464149971
35.52245704,1.745426655,-1.675831795,-0.7595697641,2.536113688
35.5407972,1.135443211,-2.745574474,-1.487444639,3.322634803
35.55912459,0.6950267553,-3.660076141,-2.021280527,4.238489651
35.57747756,0.3714522123,-4.283108711,-2.242589474,4.848938495
35.59581767,0.08260279894,-4.249711514,-2.270576954,4.818961597
35.61415788,-0.0255202651,-3.588732243,-1.765055418,3.99938383
35.63249803,-0.1560920179,-2.958396912,-1.510194182,3.325231341
35.65083814,-0.2435127795,-1.918591499,-1.743258476,2.603697742
35.66916558,-0.2253075838,-0.9122200012,-1.627730608,1.879472205
35.6875185,-0.1462706178,0.0974407196,-1.391930342,1.402982489
35.70585866,0.07503463328,1.183040619,-1.182124853,1.674107067
35.724186,0.4993070364,2.228060722,-0.272077322,2.299475629
35.74253897,0.8041052818,3.024188042,0.8197010756,3.234842882
35.76087907,0.6976584196,3.580687523,0.6636562347,3.70789563
35.77921923,0.5308910608,3.494021416,-0.03904151917,3.534339431
35.79755938,0.8982232809,3.245517731,0.1309543848,3.3700652
35.81589954,1.304112315,3.317530632,1.248648882,3.777015019
35.83422694,0.4481024742,2.787448883,1.507142305,3.200335144
35.85257985,-1.631439209,1.638622284,-0.5242581367,2.370975216
35.87092001,-2.890383244,1.370459557,-2.455778599,4.032781077
35.88924741,-2.03075099,1.45832634,-0.3375962973,2.522823132
35.90760032,-0.3072727621,1.904125214,3.728701353,4.198014192
35.92594048,-0.07780590653,1.436028481,4.266448021,4.502311659
35.94426782,-1.298548222,0.1389465332,1.183760405,1.76261803
35.96262079,-1.903415442,-1.128977776,-1.185265541,2.510465209
35.9809609,-1.425007343,-1.824951172,-1.091203809,2.559652019
35.99930105,-0.3905636966,-1.405237198,0.07926058769,1.460655272
36.01764121,0.2643272281,-1.343658447,0.7964708805,1.584188363
36.03598136,0.292644918,-1.878455162,0.7299888134,2.036447522
36.05432147,-0.1318943948,-2.747502327,0.03213143349,2.750853976
36.07266168,-0.4297633171,-3.693902016,-0.6248238087,3.770943304
36.09100178,-0.5510247946,-4.012428284,-1.014771104,4.175280763
36.10934194,-0.4149321914,-3.447681427,-1.504376292,3.784418578
36.12768204,-0.5228260756,-2.701686859,-1.565536261,3.165969484
36.1460222,-1.174463987,-1.757198811,-1.900367498,2.842271969
36.16434954,-1.909519553,-0.5256690979,-2.73952508,3.380471947
36.18270251,-1.628117323,0.7766599655,-2.247843027,2.882145901
36.20104261,-0.558036685,2.250009537,-0.3158934116,2.339601783
36.21937001,0.550313592,3.131795883,1.95070529,3.730447913
36.23772293,0.5723127127,3.290125847,2.613999844,4.240927388
36.25606303,0.02856990695,3.083212852,1.500368357,3.429011948
36.27440319,0.1696072221,2.899454117,1.4743433,3.257190346
36.29274334,1.089284778,2.817203522,2.350079536,3.827015918
36.31108345,0.9527807236,2.212475777,2.038444042,3.155644828
36.32941079,-0.1576469243,1.043715477,-0.2741043568,1.090563042
36.34776371,-1.04859972,0.4372911453,-2.145182848,2.427466657
36.36610386,-1.532655954,0.628613472,-1.723563075,2.390577095
36.38443121,-0.6657665372,1.109572411,0.6651089191,1.454910956
36.40278413,0.5289683342,1.663408279,2.579147577,3.114279504
36.42112428,1.131140828,0.6188316345,3.646740913,3.867964769
36.43945163,0.8523715734,-0.9866104126,3.525177956,3.75856582
36.45780454,0.6296041012,-1.866142273,2.382694006,3.091297306
36.47614465,0.6736667156,-2.216269493,1.398733139,2.705943773
36.4944848,0.9640636444,-2.167023659,0.9259412289,2.546129888
36.51282491,0.989380002,-2.118712902,0.4368526936,2.378793271
36.53116506,0.7673577666,-2.265277386,-0.1619381905,2.397194934
36.54950517,0.3442046344,-2.263261795,-0.9152342081,2.465458261
36.56784532,-0.1602582932,-2.524527073,-1.818123817,3.115203666
36.58618543,-0.3767901063,-2.722546101,-2.087520599,3.451372235
36.60452558,-0.4628298879,-2.789892197,-1.622234941,3.260269341
36.62286569,-0.6253658533,-2.61643219,-1.604699373,3.132388854
36.64120584,-0.4868896306,-1.705301285,-1.883249998,2.586840648
36.65953319,-0.31118083,-0.521156311,-2.308707952,2.38716774
36.6778861,-0.2682866156,0.004787445068,-2.141496897,2.158242245
36.69622621,0.04206994176,0.2270612717,-1.277052045,1.297762932
36.71456631,0.234444052,0.7280282974,-0.8321399689,1.13024163
36.73290647,0.2844335735,1.484467506,-0.6794095039,1.657149212
36.75124657,0.1987803876,2.365411758,-0.1807157993,2.380618539
36.76958668,0.07613697648,2.882785797,-0.1995766163,2.890688779
36.78792683,0.7091839314,3.345452309,0.3684778214,3.439588479
36.80626694,1.320238829,3.954409599,1.544747829,4.445968027
36.82459428,0.04716393352,3.334131241,1.026465178,3.488880383
36.8429472,-2.310691357,2.230167389,-1.475193501,3.533997311
36.8612873,-2.611288786,2.883051872,-1.299983144,4.101313618
36.87961465,-0.5334773064,3.587752342,3.016881227,4.717853034
36.89796756,0.3720806241,3.093112946,5.664693832,6.464870293
36.91630767,-0.7799363136,0.9862318039,3.63395524,3.845332822
36.93463501,-2.278269768,-0.8861198425,-0.5315730572,2.501657735
36.95298788,-2.213886261,-2.142633438,-2.068292856,3.71079584
36.97132803,-1.133567929,-2.525429726,-1.345260501,3.077742251
36.98966814,-0.2046453506,-2.298875809,-0.2735602856,2.324122401
37.00800824,0.200958252,-2.268357277,0.6837518215,2.377676494
37.02634834,0.2639497519,-2.844752312,1.176281929,3.089647935
37.04468845,0.1815398782,-3.731701851,1.403581858,3.991064703
37.06302855,0.03509061038,-4.045490742,0.8631565571,4.136697467
37.08136871,0.09819514304,-3.416665077,0.2965466976,3.430915691
37.09970881,0.2963269055,-2.777692795,0.5256333351,2.842477317
37.11804892,0.2294258177,-2.262316704,0.3506016731,2.300789996
37.13638902,-0.0580336079,-1.789158821,-0.7075406313,1.924856081
37.15471636,-0.1510890871,-0.9693641663,-2.003245831,2.230580341
37.17306923,0.1453166902,0.3522777557,-2.059926033,2.094877519
37.19140933,0.5318940282,1.67757988,-1.142763019,2.098354791
37.20973673,0.4626167119,2.41108036,-0.4995065928,2.505360166
37.22808959,-0.1751226783,2.55844593,-1.14439857,2.808195438
37.2464297,-0.5962660313,2.695560455,-1.967941046,3.390334985
37.26475699,-0.08589749783,3.089020729,-0.7675869465,3.184119527
37.28310991,0.9077628851,3.569946289,1.682523489,4.049621619
37.30145001,0.9066699147,3.243869781,2.202698469,4.024502707
37.31977735,-0.6598623395,2.37739563,-0.1027722359,2.469410946
37.33813022,-1.138416767,2.625162125,-0.498811841,2.904527874
37.35647032,0.1468681097,3.048062325,2.116760015,3.713883027
37.37479761,1.092007399,2.432778358,3.770535231,4.618205996
37.39315053,0.8643161058,0.7084331512,3.120491982,3.314572381
37.41149058,0.6103069782,-0.9223985672,1.778884411,2.09468935
37.42981793,0.7972636223,-2.076631546,1.075623274,2.470828462
37.44817079,1.237572193,-2.609342098,0.4527688026,2.923226079
37.4665109,1.385026336,-2.601935387,-0.3180549145,2.964713247
37.484851,1.379525661,-2.599795341,-0.6444079876,3.012853883
37.5031911,1.435681343,-2.726960659,-0.6578483582,3.151231476
37.52153121,1.16706562,-3.031731606,-0.5796444416,3.299913085
37.53987131,0.722028017,-3.649605274,-0.6928043365,3.78429927
37.55821142,0.6205800772,-3.780007362,-0.6378309727,3.883349539
37.57655147,0.5716552734,-3.589199066,-1.14319551,3.809991557
37.59487881,0.5924845934,-2.863858223,-2.276207924,3.705920186
37.61323168,0.4634771645,-1.99555397,-2.927262306,3.572941553
37.63157178,0.2740684152,-1.214485168,-3.26228857,3.491792439
37.64989907,0.04252146184,-0.01765632629,-3.343173742,3.343490764
37.66825199,-0.03883399069,1.003575325,-2.537193298,2.728739882
37.68659204,0.1548745334,1.792883873,-1.099705338,2.108973811
37.70491939,0.5985635519,2.47785759,0.2853341103,2.56504817
37.72327225,0.4887472689,2.851356506,1.264963388,3.157410362
37.7416123,0.3595876694,3.061310768,1.431596756,3.39858738
37.75995241,0.6506806612,3.45253849,1.0998559,3.681452207
37.77829251,1.234289765,3.421312332,1.286192179,3.857867237
37.79663256,0.5212263465,2.988098145,0.6474616528,3.10155026
37.81495991,-1.541840672,2.617227554,-1.949323297,3.609295505
37.83331277,-2.821042776,2.995266914,-3.338259459,5.298479258
37.85165282,-1.432528973,3.545032501,0.0254445076,3.823616366
37.86998017,0.362695843,3.825267792,4.576378822,5.975572364
37.88833303,0.7878423929,2.373796463,6.973970413,7.408904683
37.90667308,-0.3099117577,-0.01299858093,4.495913029,4.506600517
37.92500038,-1.28549993,-1.827819347,0.7493543625,2.356897452
37.94335324,-1.335061312,-3.043349266,-1.170028687,3.52325568
37.96169334,-0.8720549345,-3.40755558,-1.43459022,3.798679236
37.9800334,-0.2676091492,-3.505230904,-0.6574877501,3.576387631
37.9983735,-0.08948849142,-3.593515396,-0.2151522636,3.601062564
38.0167136,-0.2490463853,-4.078098774,-0.1744265556,4.089417848
38.03505366,-0.4712715745,-4.023385048,-0.5220701694,4.084394864
38.05339371,-0.4579662383,-3.741636276,-0.6224403381,3.820602973
38.07173381,-0.256529808,-3.062134266,-0.7818552256,3.170768266
38.09007386,-0.2485923171,-2.393371105,-1.026504517,2.616053308
38.10841397,-0.4820089042,-1.551010132,-1.758354425,2.393694905
38.12675407,-0.5725048184,-0.6059684753,-2.419224024,2.558828724
38.14508136,-0.1763298213,0.3578290939,-1.964866042,2.004951977
38.16343418,0.3282404542,1.281578064,-0.7128303051,1.502767838
38.18177428,0.2655149698,2.034823418,-0.3754982948,2.086145611
38.20011433,-0.1585103869,2.425127029,-0.2491728067,2.443041903
38.21845438,-0.3852842152,2.918580055,-0.2444339991,2.954031389
38.23679449,0.07762798667,3.220468521,0.5003600121,3.260031249
38.25512178,0.8718247414,3.222132683,1.889765263,3.835808931
38.27347465,1.488940239,2.599207878,3.29570055,4.453590321
38.2918147,0.8177361488,1.69973278,2.43529892,3.08033517
38.31014199,-0.3705145121,1.03540802,-0.1154243946,1.105745704
38.3284948,-0.5676162243,2.011644363,-1.073578835,2.349781423
38.34683491,0.5079711676,2.749484062,0.7795418501,2.902650997
38.36517496,0.8937246203,2.326478004,1.52159214,2.920014768
38.38351501,1.080049634,0.9966917038,1.496167541,2.097240776
38.40185506,1.435909986,-0.5624837875,1.93059051,2.470911819
38.42018235,1.609393239,-2.072346687,1.424507141,2.985630249
38.43853522,1.443946123,-2.99536562,0.134231329,3.327944358
38.45687527,1.219706893,-2.957335472,-0.4986813068,3.237622746
38.47521532,1.157314539,-2.801129818,0.5967040062,3.088974081
38.49355538,0.9506775141,-2.614385128,0.9088301659,2.926562763
38.51189548,0.573867023,-2.65497303,0.388184309,2.743882689
38.53023553,0.1231733859,-3.167267799,-0.1035413742,3.171352679
38.54857558,-0.3912582099,-3.768790245,-1.32450211,4.013872038
38.56691564,-0.7885529995,-3.77598238,-2.732001066,4.726911105
38.58524293,-0.934417665,-3.277288437,-3.606025457,4.961569859
38.60359574,-0.9888209105,-2.44426918,-3.525737762,4.402618015
38.62193579,-0.8069769144,-0.9698123932,-2.827668428,3.096361826
38.64026308,-0.4077236652,0.9484272003,-1.819899321,2.092316008
38.6586159,0.4174711406,2.730195045,-0.5459088087,2.815362067
38.67695595,1.020516157,3.474589348,1.101557016,3.785188532
38.695296,0.8868171573,3.278851509,1.312088013,3.641275442
38.71363605,0.4123130739,2.613329887,0.4221560955,2.679125033
38.73197616,0.2810672224,1.931378365,0.06071019173,1.952666612
38.75031621,1.043347359,1.878427505,0.7685899734,2.282059191
38.76865626,1.556387067,2.537635803,1.712436199,3.4342938
38.78699631,1.052925229,2.754890442,1.555918694,3.334509839
38.80532355,-0.8588647842,2.006859779,-0.555770278,2.252557545
38.82367636,-2.30666256,1.044106483,-2.032925844,3.247096857
38.84201642,-1.971246243,0.2308797836,-0.2007966042,1.994852501
38.86034371,-1.09764266,0.3242692947,2.400074959,2.659009175
38.87869652,-0.9032565355,0.4119024277,2.385320187,2.583657944
38.89703657,-1.106494904,-0.1563825607,1.22452879,1.657786848
38.91537662,-0.9936273098,-1.032408714,0.5750505924,1.543970909
38.93371668,-0.8470164537,-1.331671715,0.2976677418,1.606048727
38.95205673,-0.3275047243,-1.163086891,0.7296762466,1.411544504
38.97039678,0.1855530143,-0.9284830093,1.856886148,2.084355245
38.98873678,0.2174919844,-1.218447685,2.125177622,2.459328658
39.00707689,-0.330701381,-2.181200027,1.03190136,2.435532258
39.02540412,-0.7814756632,-3.136198997,-0.3241424561,3.248309821
39.04375694,-0.7621991634,-3.224549294,-0.930065155,3.441465807
39.06209699,-0.4246507585,-2.618658543,-0.8786971569,2.794603643
39.08043699,-0.3398529589,-2.206339836,-1.118155479,2.49673931
39.09877704,-0.6002750397,-1.64283371,-1.868399382,2.559325882
39.11711715,-0.6588932276,-0.6211595535,-1.895637393,2.100814271
39.13544438,-0.4200525582,0.5581932068,-0.7215468884,1.004317539
39.1537972,-0.2589681447,1.426171303,0.3423788548,1.489379859
39.17213725,-0.4620822966,1.861523628,-0.1187608242,1.921690506
39.19046449,-0.9368932843,2.427495003,-1.292421579,2.90531488
39.2088173,-0.4921107292,3.332445145,-0.6845316887,3.437433235
39.22715735,0.7031698823,3.947035789,0.9566104412,4.12172815
39.24548459,1.593102217,3.763270378,2.264290094,4.671957646
39.26383741,1.323253036,2.823004723,1.795701504,3.59790191
39.28217746,-0.04640543461,1.693651199,-0.3839979172,1.737257105
39.30051751,-0.6452171803,1.920144081,-1.258024812,2.384509369
39.31885756,-0.1096295565,2.007736206,0.7148132324,2.134005921
39.33719756,0.4953421354,1.836400986,2.24447298,2.942004652
39.3555248,0.4918175936,0.6838264465,2.411955833,2.554806078
39.37387761,0.6660184264,-0.3793582916,2.736382008,2.84170367
39.39221767,1.282058477,-1.202563286,3.45930481,3.88028635
39.41054491,1.872419357,-1.843432426,3.386164427,4.286059599
39.42889772,2.078351259,-2.301357269,2.098356009,3.744180441
39.44723777,1.942935586,-2.530573368,0.5734169483,3.241543962
39.46556501,1.441540956,-2.937802315,-0.5430490971,3.317171248
39.48391782,0.9109808803,-3.413497448,-1.259173632,3.750649174
39.50225782,0.531670928,-3.699799061,-1.681227088,4.098501139
39.52059788,0.0829776898,-4.373771191,-1.928078413,4.780611477
39.53893788,-0.2620833516,-4.868104935,-2.162148952,5.333106171
39.55727793,-0.4171081781,-4.151468754,-2.586958647,4.909279691
39.57560517,-0.2840824723,-2.640843868,-2.24885273,3.480243926
39.59395798,-0.1169998646,-1.152849197,-1.466847539,1.869329276
39.61229798,0.05484586954,0.3939914703,-1.367501378,1.424183053
39.63062527,0.1022763848,1.362204552,-1.58039844,2.088952113
39.64897803,0.07030585408,1.733963966,-1.930188894,2.595612282
39.66731808,0.309651792,2.391607285,-1.982459188,3.121828641
39.68565808,0.6574950218,2.699644089,-0.7681273222,2.882776005
39.70399808,0.8385254145,2.918823242,-0.04402041435,3.037201308
39.72233814,1.101043701,3.412532806,0.003482103348,3.585762055
39.74067814,1.703144073,3.565423012,0.1900455952,3.955889068
39.75901819,2.151981592,3.227962494,1.154515743,4.047675041
39.77735819,1.503954887,2.526292801,1.828341484,3.462205684
39.79568543,-0.4944857359,1.889499664,0.7452700138,2.090490975
39.81403824,-2.047346592,1.467933655,-0.141929388,2.523212483
39.83237824,-2.058897734,1.277741432,0.5671932697,2.488652497
39.85070548,-1.275956273,1.412098885,2.47307682,3.120608375
39.86905829,-1.152339339,1.30163002,3.352909803,3.776788426
39.88739829,-1.90627408,0.4699802399,2.718287945,3.353185298
39.90573834,-2.6355474,-0.3339767456,1.629907131,3.11676881
39.92407834,-2.336192846,-0.9312391281,1.424970865,2.89059601
39.94241834,-1.317867994,-1.271258354,2.058726311,2.755218299
39.96075834,-0.2128547132,-1.799016476,2.261301041,2.897455747
39.9790984,0.06979353726,-2.125535011,1.013031006,2.355631983
39.9974384,0.2808828354,-2.572770119,-0.7207782269,2.686552159
40.01576564,0.3978626132,-2.622542381,-2.110103607,3.3894779
40.0341184,0.1769981384,-2.422707558,-2.323730707,3.361631248
40.05245845,-0.07451012731,-2.327853203,-2.435135365,3.369619643
40.07079845,-0.2147157192,-2.790865898,-2.543737173,3.782278957
40.08913845,0.1210114211,-3.02804184,-1.640258193,3.445885675
40.10747845,0.4125698209,-2.403122902,-1.355145335,2.789557746
40.12581845,-0.1669658273,-1.477721214,-2.19781518,2.653663343
40.1441585,-0.8487232924,-0.6596727371,-2.901863813,3.094561833
40.1624985,-0.9939652681,-0.2725038528,-2.407681227,2.618998701
40.18082569,-0.6035245657,0.2980489731,-1.036540985,1.235917597
40.1991785,-0.479958415,1.506149292,-0.2222651243,1.596323136
40.2175185,-0.1838548332,2.787883759,0.08973765373,2.795380349
40.23584574,0.3784026504,3.391098022,0.540405035,3.45467393
40.2541985,1.113191843,3.230494499,1.848446608,3.884848215
40.2725385,0.4438693821,2.717029572,1.498077631,3.134247327
40.2908785,-0.7975190282,2.718416214,0.04374694824,2.833326156
40.30921855,-1.147888899,3.117830276,-0.34403193,3.340190492
40.32755855,0.04241573811,3.720934868,1.68199873,4.083659525
40.34588574,0.8623914719,3.348203659,3.677656412,5.047706754
40.36423855,0.8922943473,2.004208565,4.077507019,4.630238079
40.38257855,1.150468707,0.1424541473,3.404930592,3.596863045
40.40090574,1.471938133,-1.13267231,1.761151791,2.559532
40.4192585,1.586287379,-1.786418915,0.3017959595,2.408045056
40.4375985,1.566872358,-1.929395676,-0.5649735928,2.548892273
40.4559385,1.488965988,-2.063827515,-0.4741678238,2.588675115
40.4742785,1.058558345,-2.732864857,-0.5960452557,2.9907133
40.4926185,0.2599932551,-3.869206429,-1.123734593,4.037466324
40.51094574,-0.2739152312,-4.910832405,-1.26622808,5.078842192
40.5292985,-0.4599910378,-4.661916733,-1.527081728,4.927173427
40.5476385,-0.4238199592,-3.619580746,-1.263819814,3.857230698
40.56596574,-0.235505566,-2.36562109,-0.6027462482,2.45253523
40.5843185,-0.3019892275,-1.56777668,-0.5681259632,1.694664664
40.6026585,-0.4907107353,-1.072330475,-0.7267118692,1.385207499
40.62099845,-0.5115087032,-0.5258731842,-0.9688413143,1.215251929
40.63933845,-0.5089859962,0.2831220627,-1.232458234,1.363150082
40.65767845,-0.1668678969,1.308516502,-1.162159801,1.758031778
40.67600569,0.5066640377,2.171675682,-0.7419962883,2.350200461
40.69435845,0.7446523905,2.275948524,-0.1901135445,2.402205659
40.71269845,0.4732519686,2.039140701,-0.2783739567,2.11176568
40.7310384,0.4923802614,2.280284882,-0.6831527948,2.430809578
40.7493784,1.395892978,2.913111687,-0.2183861732,3.237658015
40.7677184,2.185618162,3.656936646,1.03059411,4.383176542
40.7860584,1.734919429,3.661728859,1.325518608,4.263238586
40.80439834,-0.2927493155,2.618625641,-0.1239328384,2.637851731
40.82273834,-2.515335798,1.606608391,-2.204570532,3.710557361
40.84107834,-2.584236145,1.261275291,-1.487490892,3.237548605
40.85941829,-0.5524829626,1.907553673,2.779730558,3.416269957
40.87775829,0.5451606512,1.437128067,5.27551651,5.494871396
40.89609829,-0.3563008904,0.6407871246,3.232665062,3.314767242
40.91443824,-1.468543291,-0.2522773743,0.6352000237,1.619797006
40.93277824,-1.403811932,-1.230632782,0.4103827477,1.911428519
40.95111819,-0.5760180354,-1.535183907,0.9173762798,1.878873504
40.96945819,-0.02377593517,-2.084785461,0.9486632347,2.290602027
40.98779819,-0.1053467691,-2.964341164,0.6259562969,3.031540493
41.00612538,-0.430945605,-3.800613403,0.2600588799,3.833797983
41.02447814,-0.4972605705,-4.084459305,-0.03695130348,4.114783261
41.04281808,-0.3644184768,-3.673509598,-0.7470164299,3.766365242
41.06115808,-0.1253663003,-3.224135399,-1.252357006,3.461092869
41.07949808,-0.02804833651,-2.484513283,-1.981673598,3.178147764
41.09783808,-0.2202926874,-1.966023922,-2.620412827,3.283343161
41.11617803,-0.3076708019,-1.240278244,-2.84101367,3.115174171
41.13451798,0.02437287569,-0.1226625443,-2.290845633,2.294256709
41.15285798,0.5701572895,1.449426651,-1.452433944,2.129666949
41.17118517,0.5986053348,2.47383213,-0.8617237806,2.687143768
41.18953793,0.1730518937,2.669691086,-0.7971371412,2.791527373
41.20787788,-0.4290825427,2.590708733,-0.8894554377,2.772546581
41.22621788,-0.5575401783,2.573412895,-0.9685450792,2.805598786
41.24455782,0.04641219974,2.516669273,-0.1036653519,2.519231
41.26289782,0.8857887983,2.234395981,1.290014982,2.727872037
41.28123782,1.006208301,1.870820045,1.962642908,2.892125511
41.29957772,0.1391148567,1.091897964,0.1037983894,1.105607622
41.31791772,-0.5192857385,1.928934097,-1.597097397,2.557570043
41.33624491,0.4947564006,3.602931023,-0.5557396412,3.678959418
41.35459767,1.666214705,3.38439846,1.475872755,4.050756074
41.37293761,1.355074763,1.179334641,1.646938801,2.437101808
41.39126485,0.8203566074,-1.007796288,0.8468506336,1.551062319
41.40961756,1.318955541,-1.667840481,0.8464360237,2.288621753
41.42795751,2.083708763,-0.5582313538,1.024181128,2.387972244
41.44629751,2.261584759,0.1741085052,1.093957663,2.518297592
41.46463746,2.20372057,0.6777086258,0.7697038651,2.43066192
41.48297741,1.714570045,0.3041563034,0.1370179653,1.746721335
41.50131741,1.204024315,-0.8593826294,-0.4907189608,1.558530767
41.51965735,1.181184649,-1.519949913,-0.6307454109,2.025656607
41.5379973,0.885735631,-1.892695427,-0.1433885098,2.094608281
41.5563373,0.8348509669,-1.876847744,0.388081789,2.090488236
41.57467725,0.662496388,-1.597722054,0.2670958042,1.750130679
41.59301725,0.505505085,-1.660495281,-0.3921610117,1.779485945
41.6113572,0.3444895744,-2.016447067,-0.8890235424,2.230492031
41.62969715,0.3269412518,-1.883206367,-1.544496894,2.457402584
41.64803709,0.3637135625,-1.679831982,-1.82546699,2.507279956
41.66637704,0.3686649203,-1.895784378,-1.572656751,2.490614681
41.68471704,0.5439087152,-1.304574966,-1.693676949,2.205967846
41.70305699,1.266322374,0.3194227219,-1.042795658,1.671234877
41.72138418,1.460936666,1.50526619,-0.6031565666,2.182649785
41.73973688,1.072406292,1.850954056,-0.4229183793,2.180583896
41.75807683,0.8613532782,2.047194481,0.6158381701,2.304819161
41.77640402,0.8279103041,2.43519783,1.8917346,3.192848844
41.79475678,0.3671093881,2.289393425,2.314650059,3.276232051
41.81309673,-1.234818935,1.403030396,0.449791193,1.922390234
41.83142392,-2.475654602,1.115967751,-1.73687768,3.223506445
41.84977663,-1.852551937,1.556554794,0.1301041842,2.423167061
41.86811663,0.06001204252,1.642747879,4.068524837,4.388065222
41.88645657,0.7048047781,0.8787269592,4.396553993,4.53856782
41.90479652,-0.3611421883,-0.48686409,0.8035724163,1.006572874
41.92313652,-0.9974541664,-1.396809578,-1.653644919,2.383386945
41.94147642,-0.2628223896,-1.159805298,-0.6413741112,1.351141994
41.95981642,0.8169668913,-0.4363460541,1.249668717,1.55547571
41.97815636,1.022201419,-0.5077629089,1.643029332,2.000565995
41.99649631,0.5108094215,-1.53360939,0.6968502998,1.760251223
42.01483626,-0.1299677044,-2.565840721,0.2272076607,2.579157524
42.03317621,-0.3661922812,-3.392002583,-0.1443123817,3.414762711
42.05151621,-0.2173376083,-3.393070221,-0.4342877865,3.42764745
42.0698561,-0.2293199301,-2.948991776,-0.9127975702,3.095535418
42.08819605,-0.4249373078,-2.662218571,-1.067496896,2.899573944
42.106536,-0.3314166665,-2.045275211,-1.016520977,2.307878375
42.124876,-0.1249801815,-1.560788631,-1.246455669,2.001332789
42.14321595,-0.1163486242,-0.7397594452,-1.036351204,1.278594876
42.1615559,-0.2866178155,-0.09835720062,-0.9128051996,0.9617885649
42.17989584,-0.5662150979,0.4668045044,-1.382993221,1.565623273
42.19823579,-0.4733423293,1.138055801,-1.045391798,1.616189339
42.21656298,-0.5709465742,1.920418739,-0.1315009594,2.007804928
42.23491569,-0.1917339861,2.200740814,1.280525446,2.553383534
42.25325564,-0.09994822741,2.733155251,1.42501092,3.083955803
42.27159558,0.2165751159,3.127088547,1.611569881,3.524591472
42.28993553,0.3045405447,2.819005966,1.124408722,3.050218772
42.30827548,-0.2004350126,1.601041794,-0.6601830721,1.74337337
42.32661548,-0.6547384858,1.155767441,-1.400401711,1.930182845
42.34495538,0.3381735682,2.126319885,1.237683296,2.483436643
42.36329532,1.394496679,2.233570099,3.861205816,4.673581788
42.38163527,1.23297143,1.136480331,2.657312155,3.142151171
42.39997522,1.07259047,0.03220939636,1.341904879,1.718195701
42.41831517,1.361631393,-0.3603134155,1.858746052,2.332124073
42.43665511,1.794611454,-0.7120962143,1.666447878,2.550443063
42.45499506,1.998562574,-1.20818615,0.5711705685,2.404205057
42.47333501,2.000576973,-1.606749535,-0.5453393459,2.623232223
42.49167496,1.898889184,-2.061604023,-0.8931322098,2.941713179
42.51001491,1.515782118,-2.293393612,-1.257824302,3.023139372
42.52835485,1.263093591,-2.572369576,-1.262143254,3.131372901
42.5466948,1.27187264,-2.567749023,-1.018753052,3.041192667
42.56503475,1.332201481,-2.412142754,-1.027058601,2.940755485
42.5833747,1.181704283,-2.638632774,-0.9163789749,3.03291252
42.60171465,0.9114987254,-2.475337029,-1.050482154,2.839302042
42.62005459,0.7986166477,-1.870056629,-1.494554877,2.523607463
42.63839454,0.6643561721,-1.116206169,-1.699029565,2.138688102
42.65672168,0.6595327258,-0.3200874329,-1.490187764,1.660752526
42.67507444,0.8196008801,0.103635788,-1.059841514,1.343781981
42.69341433,0.5361106992,0.05436134338,-1.03850925,1.169987735
42.71175428,0.1431238502,0.19373703,-0.4477505684,0.5084280134
42.73009423,-0.3209780753,0.8242330551,0.1677525043,0.9002932615
42.74843418,-0.746873498,1.531906128,0.3070392609,1.731712885
42.76677413,-1.008950472,1.988837242,-0.3910784721,2.26415481
42.78511407,-0.7396128178,2.830244064,0.2117872238,2.932944325
42.80345402,0.2674651742,3.397926331,2.663933039,4.325965811
42.82179397,0.6963480115,3.061223984,3.172948599,4.463585514
42.84013386,-0.2911011279,2.536046028,0.363535881,2.57845451
42.85847386,-1.789254308,2.504161835,-2.517661572,3.976289383
42.87681376,-1.539973021,3.543597221,-1.969712257,4.33686114
42.89515371,0.2437151819,3.922793388,2.184541702,4.49665737
42.91349366,0.8926243782,3.172687531,4.561994076,5.628011584
42.93182079,-0.5107799768,0.9927387238,1.905809999,2.208741295
42.95017355,-2.125063419,-1.257004738,-1.419178724,2.847810334
42.96851345,-2.533613205,-2.690513611,-3.267517328,4.933024311
42.98684064,-1.89009726,-3.078368187,-3.309880733,4.899400863
43.00519334,-0.7760536075,-2.519138336,-1.979117632,3.296243887
43.02353329,-0.07677999139,-2.033463955,-0.3319340944,2.061807718
43.04186043,0.1191613972,-1.819134712,0.9393832684,2.05082702
43.06021319,-0.1102223992,-2.151937485,1.303220749,2.518207346
43.07855308,-0.5201599598,-2.813316822,0.9669508934,3.019985423
43.09689303,-0.8998201489,-3.458577633,0.5089898109,3.609779241
43.11523298,-1.150918126,-3.859564781,-0.02912354469,4.027617287
43.13357293,-1.029448509,-3.557163239,-0.5241651535,3.740043268
43.15191282,-0.7432262897,-2.558811188,-0.8633018732,2.800926657
43.17025277,-0.4687893391,-1.567732334,-1.464257836,2.195814001
43.18859272,-0.1986148953,-0.5317831039,-1.508810878,1.612064332
43.20691985,-0.01599645615,0.5136556625,-1.139976859,1.250458022
43.22527256,-0.03418073058,0.8780946732,-0.5994102955,1.06372519
43.24361251,0.2854058444,1.915326118,0.2077412605,1.947584932
43.2619397,1.057172298,3.371458054,1.158700466,3.718457939
43.28029241,1.455534101,3.946109772,1.210163116,4.376626168
43.2986323,1.701538205,3.930370331,1.008384228,4.399986585
43.31697225,1.564577937,3.501584053,0.8188884258,3.921679902
43.3353122,0.9547259808,2.671854019,0.5550963879,2.891096262
43.35365215,-0.007764071226,2.198037148,-0.2821218967,2.216082207
43.37199204,-0.1363142431,2.760554314,-0.5312293768,2.814506412
43.39033204,0.4593606591,3.367251396,1.05081296,3.557190191
43.40867194,0.619517386,2.34025383,2.728209019,3.647425699
43.42699912,0.2829231024,0.3014764786,2.62207675,2.654471705
43.44535183,0.04909708351,-1.525119305,1.695894957,2.281328368
43.46369173,0.2817186415,-2.883665085,0.7243742943,2.98657125
43.48201886,0.6579471231,-3.155103207,-0.5728743076,3.27349288
43.50037157,1.10880363,-2.618332386,-0.6400316954,2.914575534
43.51871152,1.437265635,-2.465910435,-0.5560940504,2.907866463
43.53705147,1.288478136,-2.858556747,-0.9855033159,3.286752101
43.55539136,0.8615863323,-3.159270287,-1.355743289,3.544200843
43.57373131,0.3181368709,-3.615128517,-1.524307728,3.936226532
43.59207121,0.0001800656319,-3.440602303,-1.562321901,3.778702682
43.61041116,0.1275298595,-3.044055939,-0.9837821722,3.201619557
43.6287511,-0.04226249456,-2.476933956,-0.2521934509,2.490098287
43.647091,-0.5344157219,-1.73203373,-0.1183784008,1.816467575
43.66543095,-1.125882983,-0.8429231644,-0.5286159515,1.502520142
43.6837709,-1.196695805,0.05926513672,-1.304330587,1.771121533
43.70209803,-1.089213133,1.199566841,-1.52905333,2.227857702
43.72045074,-0.5788170695,1.973865509,-0.6560071707,2.159055269
43.73879069,-0.02391016483,2.588225365,0.02634215355,2.588469846
43.75711782,0.6441075802,3.605596542,0.4228289127,3.687002209
43.77547053,1.048331738,4.847835541,0.3244202137,4.970488642
43.79381043,1.267445564,5.515433311,0.185359478,5.662224034
43.81213761,1.261591077,5.094112396,1.420330048,5.43681254
43.83049027,0.4823998511,4.182443619,1.991589308,4.65746414
43.84883022,-1.141716719,3.504120827,-0.1028568745,3.68686308
43.86717017,-1.880390882,3.152509689,-0.7245343924,3.741542102
43.88551006,-0.9333176613,2.656274796,1.543414831,3.210764237
43.90385001,-0.1625292152,1.942000389,3.772127151,4.245789032
43.92217715,-0.6546076536,0.5658817291,3.535368204,3.639719996
43.94052985,-2.07158637,-1.396565437,1.139480591,2.745957233
43.95886975,-2.719569921,-3.224147797,-0.8270612955,4.298281047
43.97719694,-2.520992279,-4.358169079,-1.531712055,5.262621173
43.99554959,-1.991895199,-4.909181595,-1.39575398,5.478671334
44.01388954,-1.290709734,-4.705994129,-0.8961143494,4.961384211
44.03222949,-0.4779090583,-4.027246952,-0.4199733734,4.077191768
44.05056938,-0.2430034727,-3.851503849,-0.03408026695,3.85931264
44.06890928,-0.2428753823,-3.376760483,-0.7708027363,3.47212279
44.08724923,-0.5416611433,-2.330371857,-1.492984414,2.820112098
44.10558918,-0.354362756,-1.201739311,-1.453809023,1.919195407
44.12392907,-0.07917070389,-0.8419828415,-0.9391461611,1.263803235
44.14226897,-0.03301239014,-0.6653118134,-0.8817605972,1.10509338
44.16060892,-0.0553766042,-0.04586219788,-0.5159561634,0.5209421005
44.17894881,-0.129425332,0.9742488861,0.2845315933,1.023166671
44.197276,-0.1289386302,1.47859478,1.132245541,1.866774667
44.21562866,-0.4144409299,1.407619476,1.6647048,2.219098002
44.2339686,-0.4766036272,1.628268242,2.440854311,2.972570984
44.25229574,0.06861135364,2.510757446,3.297934055,4.145476994
44.27064845,0.8350527287,3.284255981,3.690410137,5.010267198
44.28898834,1.351247311,3.001654625,3.596238136,4.875318299
44.30731548,0.9821623564,1.557926178,2.116397858,2.805515418
44.32566819,-0.4761528075,0.6753635406,-1.063162804,1.346533533
44.34400808,-0.9942333698,1.271495819,-2.506220102,2.980996614
44.36234803,-0.07544913888,2.225215912,-0.8372927904,2.378726055
44.38068798,0.7534058094,2.462857246,0.913214922,2.732626506
44.39902788,0.6199630499,0.8266019821,1.258301497,1.62817311
44.41735501,0.3395992517,-1.099378586,0.5981090069,1.296801955
44.43570767,0.7778660059,-2.260990143,0.5623850822,2.456303916
44.45404761,1.39676559,-2.375533104,0.6175003052,2.824078304
44.47238751,1.594660044,-2.186156273,-0.0119099617,2.705986281
44.49072741,1.420885324,-1.65128088,-1.185586333,2.4801731
44.50906735,1.236345887,-1.587144375,-0.9437153339,2.222200947
44.5274073,0.8872380257,-1.839139938,-0.4553818703,2.092128025
44.5457472,0.2874712944,-2.262609482,-0.560218811,2.348592457
44.56408709,-0.353420943,-2.654771805,-0.702050209,2.768680949
44.58242699,-0.7875649929,-2.933804512,-0.4899334908,3.076930672
44.60076694,-0.9914321303,-2.544230461,-0.8121845722,2.848805028
44.61910683,-0.9346376061,-1.984212399,-1.233466983,2.516363864
44.63743397,-0.6838999987,-1.050235748,-1.784864902,2.180930319
44.65578663,-0.3576862812,0.1130161285,-2.352051973,2.381776775
44.67412657,0.1030672193,1.251953125,-1.687270045,2.103542176
44.69245371,0.2674073279,1.840651512,-0.8931443691,2.063301125
44.71080636,0.6894296408,2.192739487,0.6846702099,2.398372987
44.72914631,0.6500264406,2.262591362,1.667718172,2.884984913
44.74748621,0.01886585355,2.293471336,1.262517214,2.618074943
44.7658261,0.2092880309,2.415500641,0.5642724037,2.489346937
44.784166,0.6766414642,3.09646225,0.6337020397,3.232259335
44.8025059,0.3865696788,3.215963364,0.9013803005,3.362193171
44.82084584,-1.19046545,2.843652725,0.1210086346,3.085159947
44.83918574,-2.590620041,2.258527756,-0.9193744659,3.557739342
44.85751288,-1.753802419,1.764801025,0.3849079609,2.517637726
44.87586553,-0.2475392967,2.699209213,2.735061407,3.850657993
44.89420548,0.07637023181,2.221766472,3.650126696,4.273816042
44.91253256,-0.7944180369,0.7043704987,1.850358248,2.133322166
44.93088527,-1.189769506,-0.6180791855,0.3594310284,1.388079256
44.94922517,-1.14185524,-1.431035519,-0.145355463,1.836525049
44.96756511,-0.6541897058,-1.943613052,-0.06099939346,2.051661959
44.98590496,-0.4156564474,-2.21579504,0.2132649422,2.26450875
45.00424491,-0.6067637801,-2.98099041,-0.6816883087,3.117557547
45.02257199,-1.136138558,-4.007040501,-1.331834435,4.372752836
45.0409247,-1.334662557,-4.590019226,-1.241358161,4.938681071
45.05926459,-1.208553791,-3.964404583,-0.9981563091,4.263029672
5.169684562,1.584326029,-1.170797348,-1.305942178,2.363544027
5.18801576,-0.06654763222,-1.499564171,-0.6068092585,1.619054899
5.206372479,-0.9759758711,-0.8701639175,-1.140139222,1.73482898
5.224716437,-1.601344109,-0.9867887497,-2.881579876,3.441156429
5.243047635,-2.631293774,-2.455040932,-2.749405861,4.52881502
5.261404406,-5.073328018,-3.626646996,-1.560571551,6.428577539
5.279748365,-8.260289192,-3.779007912,0.115377903,9.084414697
5.298079562,-10.49963474,-2.175963402,-1.733499527,10.86195963
5.316436281,-9.69397831,-1.662410736,-3.742607594,10.5234945
5.33478024,-5.947469711,-2.503371239,-4.473967552,7.852111129
5.353111437,-2.317091465,-2.788079262,0.3544812202,3.642520523
5.371468156,0.3519922495,-5.097216606,1.537016273,5.33553509
5.389812115,1.037414193,-5.076385498,3.403076649,6.198939313
5.408156125,0.6269866228,-2.678956985,3.97674799,4.835746822
5.426500083,2.158226728,-5.507004738,2.210819006,6.314488457
5.444844042,2.665322304,-12.13104725,1.609177709,12.52420469
5.463175187,2.506086349,-16.0848999,-0.09247623384,16.27922067
5.481531958,3.77804327,-12.8440609,0.5573654771,13.39978237
