"Time (s)"	"Linear Acceleration x (m/s^2)"	"Linear Acceleration y (m/s^2)"	"Linear Acceleration z (m/s^2)"	"Absolute acceleration (m/s^2)"
-5.663749980e-4	3.506534296e-1	2.361555916e-1	-2.284480843e0	2.323269251e0
9.414624998e-3	4.520751393e-1	5.322556686e-1	-1.976658268e0	2.096388785e0
1.939562500e-2	5.032140103e-1	7.038539064e-1	-1.607479105e0	1.825547516e0
2.937762500e-2	4.401045732e-1	7.784789962e-1	-1.295887122e0	1.574498338e0
3.935862500e-2	2.872292662e-1	8.861601502e-1	-1.051894215e0	1.405084305e0
4.933962500e-2	2.143460619e-1	9.393025696e-1	-8.446900888e-1	1.281302032e0
5.932162500e-2	3.184975442e-1	8.880686814e-1	-6.874618220e-1	1.167351886e0
6.930262500e-2	4.620832336e-1	7.541674429e-1	-5.817577578e-1	1.058646086e0
7.928362500e-2	5.309964707e-1	5.841093618e-1	-6.153188753e-1	1.000878772e0
8.926562500e-2	5.916149940e-1	3.840012699e-1	-7.020390037e-1	9.951502596e-1
9.924662500e-2	5.769257650e-1	1.964366251e-1	-8.008587755e-1	1.006382365e0
1.092276250e-1	4.474149084e-1	9.996282935e-2	-9.518121028e-1	1.056465308e0
1.192096250e-1	2.671127978e-1	6.631911993e-2	-1.172820482e0	1.204680603e0
1.291906250e-1	7.248573974e-2	1.787552297e-2	-1.411744146e0	1.413716821e0
1.391716250e-1	-6.994600162e-2	-3.710584581e-2	-1.629561261e0	1.631483739e0
1.491536250e-1	-9.381418973e-2	-1.038980055e-1	-1.765525982e0	1.771066879e0
1.591346250e-1	6.814213559e-2	-1.621076220e-1	-1.768536129e0	1.777256951e0
1.691156250e-1	2.634752449e-1	-1.555797905e-1	-1.648813072e0	1.676964169e0
1.790976250e-1	3.891490124e-1	-9.597912133e-2	-1.496971553e0	1.549700867e0
1.890786250e-1	3.963003033e-1	-9.884951949e-2	-1.357692630e0	1.417799152e0
1.990596250e-1	5.005577664e-1	-1.503401005e-1	-1.316042329e0	1.416025294e0
2.090416250e-1	6.542782885e-1	-1.703428406e-1	-1.232855307e0	1.406068622e0
2.190226250e-1	5.358638392e-1	-9.700121462e-2	-1.077004644e0	1.206854711e0
2.290036250e-1	2.409251654e-1	-9.076808274e-2	-9.148775804e-1	9.504129457e-1
2.389856250e-1	-1.588293806e-2	-1.082723075e-1	-8.384159533e-1	8.455273331e-1
2.489666250e-1	-3.148939052e-1	-3.054000735e-2	-8.653294444e-1	9.213500480e-1
2.589476250e-1	-6.214797941e-1	6.761369348e-2	-9.633159149e-1	1.148384212e0
2.689296250e-1	-8.100605388e-1	1.142019689e-1	-1.030038346e0	1.315377954e0
2.789106250e-1	-9.704289065e-1	1.334264445e-1	-8.917565934e-1	1.324675319e0
2.888916250e-1	-9.882731469e-1	1.986626601e-1	-6.638169245e-1	1.206981182e0
2.988736250e-1	-8.119323787e-1	1.097767961e-1	-3.812641883e-1	9.036855171e-1
3.088546250e-1	-6.391116343e-1	-2.987535435e-1	6.480220601e-2	7.084607871e-1
3.188356250e-1	-5.581298903e-1	-9.714452988e-1	5.077651906e-1	1.230057085e0
3.288176250e-1	-5.000505204e-1	-1.810166988e0	6.851368960e-1	1.999041674e0
3.387986250e-1	-3.999979363e-1	-2.619901106e0	6.119042476e-1	2.719982898e0
3.487796250e-1	-2.137505230e-1	-2.988861583e0	2.014576292e-1	3.003259567e0
3.587616250e-1	5.870911494e-2	-2.625523789e0	-6.559802668e-1	2.706867569e0
3.687426250e-1	2.611378205e-1	-1.906389354e0	-1.768460553e0	2.613420375e0
3.787236250e-1	2.933744705e-1	-1.019288387e0	-2.703536171e0	2.904156542e0
3.887056250e-1	3.499415311e-1	-2.636977315e-1	-3.177783952e0	3.207850747e0
3.986866250e-1	4.287626559e-1	1.632747263e-1	-3.216936908e0	3.249489055e0
4.086676250e-1	3.629795064e-1	2.785672009e-1	-2.778428478e0	2.815851313e0
4.186496250e-1	9.092690773e-2	1.442665976e-1	-1.974745059e0	1.982094499e0
4.286306250e-1	-1.269468525e-1	-1.495951653e-2	-1.057937897e0	1.065632153e0
4.386116250e-1	-1.230206665e-1	-1.144773728e-1	-2.206307224e-1	2.773392668e-1
4.485936250e-1	-1.180964338e-1	-3.261606127e-1	4.725292113e-1	5.861837327e-1
4.585746250e-1	-1.986316699e-1	-5.015688962e-1	8.777641332e-1	1.030289169e0
4.685556250e-1	-2.917891442e-1	-5.306190330e-1	9.911194253e-1	1.161471127e0
4.785377917e-1	-2.197072278e-1	-5.769962239e-1	1.058880396e0	1.225733903e0
4.885187917e-1	-2.212783746e-1	-4.735127860e-1	1.010578886e0	1.137738178e0
4.984997917e-1	-4.125926927e-1	-2.523132026e-1	8.667316067e-1	9.925312894e-1
5.084817917e-1	-7.602071051e-1	4.009552717e-2	7.508210083e-1	1.069230883e0
5.184627917e-1	-1.108995711e0	3.970048928e-1	6.363478017e-1	1.338813989e0
5.284437917e-1	-1.337003573e0	7.368918443e-1	5.724757415e-1	1.630434488e0
5.384257917e-1	-1.285662974e0	1.001449701e0	6.999152219e-1	1.773615546e0
5.484067917e-1	-9.482238127e-1	1.072541903e0	9.624516964e-1	1.725047188e0
5.583877917e-1	-5.914403084e-1	1.018417736e0	1.237808191e0	1.708550685e0
5.683697917e-1	-3.225475451e-1	8.674040365e-1	1.432784182e0	1.705666202e0
5.783507917e-1	-1.346292168e-1	7.370883107e-1	1.485921339e0	1.664147358e0
5.883317917e-1	-1.497506281e-1	7.267019016e-1	1.427867843e0	1.609138739e0
5.983137917e-1	-3.524675283e-1	7.652648735e-1	1.284710462e0	1.536341322e0
6.082947917e-1	-5.343790850e-1	7.319889539e-1	1.049065332e0	1.386328571e0
6.182757917e-1	-6.190476447e-1	6.178881419e-1	8.338456964e-1	1.208430547e0
6.282577917e-1	-5.858489084e-1	5.079289126e-1	6.350672615e-1	1.002258026e0
6.382387917e-1	-4.472864158e-1	5.207810926e-1	4.552110010e-1	8.237081642e-1
6.482197917e-1	-3.039096183e-1	5.876276314e-1	3.707765858e-1	7.583815437e-1
6.582017917e-1	-2.358682010e-1	6.131425416e-1	4.061955098e-1	7.723809791e-1
6.681827917e-1	-2.789415689e-1	6.354683805e-1	5.267733192e-1	8.712741195e-1
6.781637917e-1	-3.131619599e-1	6.762620652e-1	6.681133854e-1	1.000887751e0
6.881457917e-1	-3.172558880e-1	6.986159706e-1	7.995845211e-1	1.108174616e0
6.981267917e-1	-2.839169647e-1	7.281455791e-1	8.946965003e-1	1.187975865e0
7.081077917e-1	-1.763397449e-1	8.386141008e-1	9.727398723e-1	1.296376556e0
7.180897917e-1	-5.331125781e-2	9.229923463e-1	1.065103076e0	1.410390557e0
7.280707917e-1	-4.645028114e-3	9.699618602e-1	1.131204094e0	1.490124253e0
7.380517917e-1	-7.055542767e-3	9.187659788e-1	1.173695226e0	1.490550632e0
7.480337917e-1	-7.807801679e-2	8.215677130e-1	1.192046712e0	1.449843111e0
7.580147917e-1	-1.875592361e-1	7.397891396e-1	1.137244853e0	1.369595668e0
7.679957917e-1	-3.229868902e-1	6.295872509e-1	1.006161388e0	1.230065598e0
7.779777917e-1	-4.446765111e-1	4.150546628e-1	8.885528308e-1	1.076816468e0
7.879587917e-1	-5.979165383e-1	1.827272433e-1	7.542604136e-1	9.796949545e-1
7.979397917e-1	-7.834701794e-1	-3.046750188e-2	6.252363378e-1	1.002833121e0
8.079217917e-1	-1.014592926e0	-2.566068131e-1	5.295256037e-1	1.172878181e0
8.179027917e-1	-1.207792679e0	-4.193102664e-1	4.203831939e-1	1.345847794e0
8.278837917e-1	-1.325932602e0	-4.948077607e-1	3.426176012e-1	1.456131452e0
8.378657917e-1	-1.351058526e0	-5.616513759e-1	3.581676865e-1	1.506351718e0
8.478467917e-1	-1.285195927e0	-6.511500281e-1	3.962049937e-1	1.494223319e0
8.578277917e-1	-1.181079674e0	-6.745207644e-1	3.587869066e-1	1.406646901e0
8.678097917e-1	-1.093151584e0	-6.306023276e-1	2.765358782e-1	1.291941088e0
8.777907917e-1	-1.033414236e0	-5.692901784e-1	1.856759759e-1	1.194366719e0
8.877717917e-1	-8.899767740e-1	-6.672801572e-1	1.323470120e-1	1.120195161e0
8.977537917e-1	-6.883769113e-1	-9.485668981e-1	1.923464978e-1	1.187703291e0
9.077347917e-1	-4.951052378e-1	-1.390672535e0	3.710636840e-1	1.522099718e0
9.177157917e-1	-3.360478158e-1	-1.902368224e0	4.878243945e-1	1.992462204e0
9.276977917e-1	-2.593672836e-1	-2.232040089e0	4.259123576e-1	2.287067049e0
9.376787917e-1	-3.360327592e-1	-2.241385109e0	1.580794752e-1	2.271940656e0
9.476597917e-1	-5.581496246e-1	-1.862345202e0	-2.697262474e-1	1.962807404e0
9.576417917e-1	-7.309730002e-1	-1.270397063e0	-7.548088825e-1	1.648625692e0
9.676227917e-1	-7.817620616e-1	-5.652930218e-1	-1.248698630e0	1.577959566e0
9.776037917e-1	-7.051340081e-1	9.868404329e-2	-1.636242144e0	1.784444132e0
9.875857917e-1	-4.635444528e-1	6.547671157e-1	-1.803934587e0	1.974277952e0
9.975667917e-1	-1.793779582e-2	9.164750397e-1	-1.653227136e0	1.890346059e0
1.007547792e0	4.846641572e-1	7.813768762e-1	-1.178444334e0	1.494717437e0
1.017529792e0	8.998878045e-1	5.492634648e-1	-5.361084356e-1	1.182751313e0
1.027510792e0	1.111429688e0	4.356538188e-1	7.246746719e-2	1.195960591e0
1.037491792e0	1.147798931e0	3.861536300e-1	5.450529214e-1	1.328020971e0
1.047473792e0	1.126611399e0	3.712104857e-1	8.167881989e-1	1.440206037e0
1.057454792e0	1.077250958e0	2.936436617e-1	9.439452589e-1	1.462097425e0
1.067435792e0	1.037069039e0	8.452734947e-2	9.046479497e-1	1.378783876e0
1.077417792e0	9.898668055e-1	-2.845430553e-1	6.097407047e-1	1.196906333e0
1.087398792e0	9.419884881e-1	-5.240964639e-1	-2.001209557e-2	1.078155786e0
1.097379792e0	9.616740167e-1	-5.822797680e-1	-7.559613687e-1	1.354748771e0
1.107361792e0	1.048156821e0	-6.051131451e-1	-1.271953592e0	1.755750717e0
1.117342792e0	1.113606899e0	-4.881951445e-1	-1.811241268e0	2.181524640e0
1.127323792e0	1.156414072e0	-3.109274465e-1	-2.204089375e0	2.508381821e0
1.137305792e0	1.139877415e0	-7.006835461e-2	-2.351147872e0	2.613833662e0
1.147286792e0	1.060825106e0	1.454798949e-1	-2.201743326e0	2.448303082e0
1.157267792e0	1.023496189e0	3.509481293e-1	-1.898906672e0	2.185533250e0
1.167249792e0	1.108428897e0	5.563210541e-1	-1.470832745e0	1.923917020e0
1.177230792e0	1.257071112e0	7.673090601e-1	-9.509239838e-1	1.753067996e0
1.187211792e0	1.395615771e0	9.223333651e-1	-5.217723419e-1	1.752338036e0
1.197193792e0	1.479986415e0	9.378220546e-1	-1.800720227e-1	1.761333565e0
1.207174792e0	1.479649323e0	9.374069023e-1	2.412678123e-2	1.751763660e0
1.217155792e0	1.414911875e0	8.651534432e-1	8.956881881e-2	1.660869853e0
1.227137792e0	1.369712898e0	7.071798027e-1	-3.410680890e-3	1.541501972e0
1.237118792e0	1.292171509e0	5.195824134e-1	-2.224706950e-1	1.410378071e0
1.247099792e0	1.155109997e0	3.399857694e-1	-5.813384394e-1	1.337095288e0
1.257081792e0	9.956625657e-1	1.910864228e-1	-9.629253940e-1	1.398242926e0
1.267062792e0	8.129432161e-1	9.722750187e-3	-1.286099761e0	1.521520226e0
1.277043792e0	6.387551004e-1	-1.111801279e-1	-1.594305328e0	1.721098073e0
1.287025792e0	4.929539010e-1	-1.605434918e-1	-1.840217584e0	1.911852117e0
1.297006792e0	4.012856394e-1	-1.993713427e-1	-1.968322477e0	2.018680874e0
1.306987792e0	3.280241203e-1	-3.003165042e-1	-1.939453019e0	1.989790904e0
1.316969792e0	2.681613497e-1	-3.632062322e-1	-1.831181881e0	1.886016002e0
1.326950792e0	1.908677369e-1	-3.759736276e-1	-1.656339608e0	1.709165750e0
1.336931792e0	1.033676630e-1	-3.921084344e-1	-1.401768211e0	1.459242275e0
1.346913792e0	2.343096256e-2	-3.959915704e-1	-1.129413092e0	1.197051489e0
1.356894792e0	-5.705376819e-2	-3.979644209e-1	-8.959431998e-1	9.820107077e-1
1.366875792e0	-1.240608130e-1	-4.107774246e-1	-7.554077104e-1	8.687749921e-1
1.376857792e0	-6.591010720e-2	-4.566570175e-1	-7.972409570e-1	9.211258966e-1
1.386838792e0	6.628257483e-2	-5.372053367e-1	-8.915232164e-1	1.042974879e0
1.396819792e0	9.749778941e-2	-5.098345202e-1	-9.661518876e-1	1.096761837e0
1.406801792e0	5.685291633e-2	-3.780786252e-1	-9.671026448e-1	1.039934241e0
1.416782792e0	4.417352155e-2	-3.288924319e-1	-8.690319744e-1	9.302355102e-1
1.426763792e0	5.396906957e-2	-2.760271704e-1	-7.628383521e-1	8.130350612e-1
1.436745792e0	1.020002916e-2	-1.247234488e-1	-6.199511126e-1	6.324550271e-1
1.446726792e0	-7.684016123e-2	-1.430585629e-1	-2.743596176e-1	3.188155620e-1
1.456707792e0	-1.038563441e-1	-5.284345132e-1	1.952793881e-1	5.728553171e-1
1.466689792e0	-3.857949033e-2	-1.116091965e0	5.057770642e-1	1.225952728e0
1.476670792e0	-1.163449734e-3	-1.679461838e0	5.947354337e-1	1.781657558e0
1.486652375e0	-7.809585080e-2	-2.071307732e0	4.501495781e-1	2.121096256e0
1.496634375e0	-1.354381791e-1	-2.151167250e0	8.384497941e-2	2.157056795e0
1.506615375e0	-1.700582273e-1	-2.042892019e0	-4.009516903e-1	2.088801058e0
1.516596375e0	-9.201266259e-2	-1.809201028e0	-1.033794159e0	2.085762464e0
1.526578375e0	-1.639296144e-2	-1.417984879e0	-1.641887630e0	2.169503362e0
1.536559375e0	4.838863313e-2	-8.123793983e-1	-2.085969626e0	2.239100495e0
1.546540375e0	6.777419955e-2	-2.813270867e-2	-2.290125745e0	2.291301097e0
1.556522375e0	1.154050335e-2	6.164696074e-1	-1.983529916e0	2.077151628e0
1.566503375e0	-3.742861211e-2	1.011146139e0	-1.185964438e0	1.558951271e0
1.576484375e0	-5.738691330e-2	1.135291883e0	-1.741335905e-1	1.150001489e0
1.586466375e0	-3.937763527e-2	1.014338719e0	8.108182649e-1	1.299176621e0
1.596447375e0	-1.255693947e-1	7.652210194e-1	1.619256567e0	1.795361443e0
1.606428375e0	-2.478900763e-1	5.351699209e-1	2.184488193e0	2.262707449e0
1.616410375e0	-3.602289762e-1	3.018888205e-1	2.501866288e0	2.545630903e0
1.626391375e0	-4.349338804e-1	1.469224030e-1	2.599325924e0	2.639554684e0
1.636372375e0	-4.346271940e-1	-1.505014837e-2	2.507703563e0	2.545133487e0
1.646354375e0	-3.931011455e-1	-1.116490746e-1	2.202644382e0	2.240231305e0
1.656335375e0	-3.289076346e-1	1.648680925e-2	1.639883789e0	1.672623953e0
1.666316375e0	-2.382021171e-1	2.449001026e-1	1.026075177e0	1.081455768e0
1.676298375e0	-1.364769369e-1	5.092480445e-1	5.490465331e-1	7.611909226e-1
1.686279375e0	3.598639637e-2	7.744145966e-1	2.763335645e-1	8.230268689e-1
1.696260375e0	2.110640198e-1	1.005519363e0	2.962409949e-1	1.069287584e0
1.706242375e0	3.195225611e-1	1.216958774e0	5.741814109e-1	1.383028423e0
1.716223375e0	4.517319077e-1	1.364376436e0	9.855867898e-1	1.742689329e0
1.726204375e0	6.053196980e-1	1.364507999e0	1.480709131e0	2.102568321e0
1.736186375e0	6.598404524e-1	1.283125867e0	1.980039128e0	2.449970686e0
1.746167375e0	6.050233904e-1	1.197213897e0	2.398180536e0	2.747843573e0
1.756148375e0	4.896123634e-1	1.097291413e0	2.650470350e0	2.910113707e0
1.766130375e0	3.605229449e-1	8.956536895e-1	2.757654490e0	2.921785518e0
1.776111375e0	2.511735803e-1	6.647313559e-1	2.616678121e0	2.711449858e0
1.786092375e0	1.697385308e-1	4.704049909e-1	2.231817895e0	2.287160498e0
1.796074375e0	6.653385893e-2	3.321200949e-1	1.757333887e0	1.789679553e0
1.806055375e0	-1.272471070e-2	2.487282747e-1	1.307002972e0	1.330520365e0
1.816036375e0	-1.145528018e-1	1.988345683e-1	9.835496199e-1	1.009964051e0
1.826018375e0	-2.208401258e-1	1.357109517e-1	8.210706997e-1	8.610138892e-1
1.835999375e0	-3.553317869e-1	1.647710288e-1	7.302938461e-1	8.286973346e-1
1.845980375e0	-4.799336135e-1	2.647806358e-1	7.875848651e-1	9.595493621e-1
1.855962375e0	-5.932877362e-1	3.703380811e-1	1.009646328e0	1.228220803e0
1.865943375e0	-6.516031873e-1	4.946802914e-1	1.305942287e0	1.541032304e0
1.875924375e0	-7.916059953e-1	6.242452347e-1	1.538416471e0	1.839306229e0
1.885906375e0	-9.658509752e-1	6.715959871e-1	1.666928331e0	2.040235118e0
1.895887375e0	-1.044064647e0	7.119493765e-1	1.688916786e0	2.109356018e0
1.905868375e0	-1.023666197e0	7.751431596e-1	1.659348001e0	2.098136123e0
1.915850375e0	-9.539757188e-1	8.055013186e-1	1.617425219e0	2.043273448e0
1.925831375e0	-8.918430591e-1	7.696093547e-1	1.627936174e0	2.009442407e0
1.935812375e0	-7.996158037e-1	6.967436922e-1	1.630666823e0	1.945227877e0
1.945794375e0	-6.946626681e-1	5.445096785e-1	1.564362906e0	1.796184377e0
1.955775375e0	-6.099910386e-1	3.969931984e-1	1.382081805e0	1.561999611e0
1.965756375e0	-5.721773873e-1	2.394335407e-1	1.202521414e0	1.353060654e0
1.975738375e0	-6.152352601e-1	9.172527194e-2	1.068339509e0	1.236235114e0
1.985719375e0	-6.185762130e-1	4.767878115e-2	9.463426173e-1	1.131580376e0
1.995700375e0	-5.510667461e-1	1.847135425e-2	8.778723067e-1	1.036665586e0
2.005682375e0	-5.003655392e-1	-5.931883335e-2	8.571725786e-1	9.942983588e-1
2.015663375e0	-4.516073620e-1	-3.010497451e-1	9.106506282e-1	1.060124863e0
2.025644375e0	-3.948963869e-1	-7.182205153e-1	1.074891315e0	1.351730448e0
2.035626375e0	-3.729193345e-1	-1.252237365e0	1.333537636e0	1.866946672e0
2.045607375e0	-3.502604967e-1	-1.843389698e0	1.499691532e0	2.402049684e0
2.055588375e0	-2.945874023e-1	-2.211556123e0	1.488481250e0	2.682040018e0
2.065570375e0	-3.349925396e-1	-2.202513989e0	1.247586490e0	2.553382056e0
2.075551375e0	-4.333216569e-1	-1.712683378e0	7.648432893e-1	1.925107080e0
2.085532375e0	-5.622609481e-1	-1.104718546e0	2.604022408e-1	1.266629294e0
2.095514375e0	-6.514941368e-1	-6.152516323e-1	-1.756655610e-1	9.131470695e-1
2.105495375e0	-6.134061049e-1	-2.763598770e-1	-4.177215779e-1	7.919173870e-1
2.115476375e0	-5.502639234e-1	-9.944768965e-2	-4.245166272e-1	7.020645235e-1
2.125458375e0	-5.525282577e-1	4.190114737e-2	-2.248014683e-1	5.979789978e-1
2.135439375e0	-5.046835618e-1	2.933179718e-1	1.775647366e-1	6.101394642e-1
2.145420375e0	-4.435651016e-1	5.681254131e-1	7.230421293e-1	1.020934085e0
2.155402375e0	-4.398165978e-1	6.754802924e-1	1.313600385e0	1.541187282e0
2.165383375e0	-4.379754558e-1	4.668522227e-1	1.848640498e0	1.956334631e0
2.175364375e0	-3.545313030e-1	1.079705912e-1	2.229988886e0	2.260575264e0
2.185346375e0	-3.009570667e-1	-2.196570879e-1	2.452347972e0	2.480490873e0
2.195327375e0	-2.799239011e-1	-4.470015103e-1	2.362972112e0	2.421116466e0
2.205308375e0	-2.799108911e-1	-6.241487557e-1	2.044190100e0	2.155603151e0
2.215290375e0	-2.895196205e-1	-6.819221699e-1	1.547718222e0	1.715887861e0
2.225271375e0	-3.084597753e-1	-6.730221230e-1	9.187414205e-1	1.179911865e0
2.235252375e0	-3.249262655e-1	-6.756855297e-1	2.821334177e-1	8.010788216e-1
2.245234375e0	-2.971622238e-1	-6.768713450e-1	-2.098916531e-1	7.684495501e-1
2.255215375e0	-2.524909580e-1	-5.833486390e-1	-6.310701048e-1	8.957102186e-1
2.265196375e0	-1.531996813e-1	-3.643212962e-1	-9.797682256e-1	1.056478076e0
2.275178375e0	-1.258262336e-2	-7.629388511e-2	-1.007242538e0	1.010206221e0
2.285159375e0	8.146852478e-2	2.665201825e-1	-7.111383677e-1	7.637983413e-1
2.295140375e0	2.144226605e-1	6.068333960e-1	-3.061520255e-1	7.127081524e-1
2.305122375e0	3.724334309e-1	8.428293586e-1	2.063260575e-1	9.442660801e-1
2.315103375e0	5.033293466e-1	1.003008569e0	7.250173187e-1	1.336045184e0
2.325084375e0	5.375532460e-1	1.149092481e0	1.147024321e0	1.710275362e0
2.335066375e0	5.050085208e-1	1.184417850e0	1.393906630e0	1.897591880e0
2.345047375e0	5.120589472e-1	1.139077370e0	1.494077035e0	1.947297565e0
2.355028375e0	5.799578387e-1	1.023625267e0	1.443599192e0	1.862293856e0
2.365010375e0	6.365942618e-1	8.719707119e-1	1.257401626e0	1.657300222e0
2.374991375e0	6.615476932e-1	6.824957818e-1	9.673446465e-1	1.356171636e0
2.384972375e0	5.650335516e-1	5.445301437e-1	6.365378362e-1	1.010423876e0
2.394954375e0	3.779681128e-1	4.996586108e-1	3.481022529e-1	7.167243544e-1
2.404935375e0	1.652743278e-1	4.663756746e-1	1.208759626e-1	5.093455327e-1
2.414916375e0	-2.229674891e-2	4.622656667e-1	-2.041674117e-2	4.632532083e-1
2.424898375e0	-1.151467328e-1	4.909743261e-1	-1.298707710e-1	5.207503972e-1
2.434879375e0	-1.686569421e-1	4.833425403e-1	-1.010083481e-1	5.217929299e-1
2.444860375e0	-1.755867697e-1	4.214456695e-1	-3.770522196e-2	4.581144506e-1
2.454842375e0	-1.399770802e-1	3.630068421e-1	6.168812513e-3	3.891087312e-1
2.464823375e0	-1.303119251e-1	2.454976881e-1	1.416639654e-1	3.119599201e-1
2.474804375e0	-2.026273647e-1	1.551435882e-1	2.709529567e-1	3.722134960e-1
2.484786500e0	-3.248751023e-1	1.568825501e-1	3.280615425e-1	4.876272576e-1
2.494767500e0	-4.527154094e-1	1.846796286e-1	4.166047231e-1	6.423529423e-1
2.504748500e0	-5.639230192e-1	2.081193620e-1	4.576802437e-1	7.555091302e-1
2.514730500e0	-6.404119089e-1	2.261796570e-1	4.676521218e-1	8.246109127e-1
2.524711500e0	-6.442991379e-1	1.980750149e-1	4.740711586e-1	8.240743620e-1
2.534692500e0	-7.006168878e-1	1.376703537e-1	5.258020967e-1	8.867271253e-1
2.544674500e0	-8.484128648e-1	-2.742344141e-4	5.935496914e-1	1.035425372e0
2.554655500e0	-9.759801069e-1	-2.469758642e-1	6.209474051e-1	1.182839772e0
2.564636500e0	-1.067733592e0	-5.394524217e-1	6.127869944e-1	1.344087735e0
2.574618500e0	-1.151203472e0	-8.375452298e-1	5.882228414e-1	1.540375784e0
2.584599500e0	-1.252672690e0	-1.214567263e0	5.811441656e-1	1.839046233e0
2.594580500e0	-1.335725080e0	-1.722722463e0	5.629003412e-1	2.251397559e0
2.604561500e0	-1.295208845e0	-2.234436278e0	4.849353949e-1	2.627819205e0
2.614543500e0	-1.203265619e0	-2.596285957e0	2.612488810e-1	2.873464789e0
2.624524500e0	-1.201026281e0	-2.835789079e0	1.349712789e-2	3.079666541e0
2.634505500e0	-1.207876148e0	-2.875456005e0	-3.450885614e-1	3.137881155e0
2.644487500e0	-1.178339523e0	-2.531533306e0	-8.776320592e-1	2.927009214e0
2.654468500e0	-1.254867589e0	-1.877941480e0	-1.319822992e0	2.615968195e0
2.664449500e0	-1.387357602e0	-1.056197181e0	-1.537661596e0	2.324804677e0
2.674431500e0	-1.409435373e0	-1.193475187e-1	-1.434752355e0	2.014762075e0
2.684412500e0	-1.337713572e0	7.162798244e-1	-9.574407057e-1	1.794220469e0
2.694393500e0	-1.122634269e0	1.365741177e0	-3.196240834e-1	1.796584598e0
2.704375500e0	-8.943784118e-1	1.795302197e0	3.787136328e-1	2.041187580e0
2.714356500e0	-7.374006982e-1	1.938679433e0	1.098101325e0	2.346926555e0
2.724337500e0	-5.833251040e-1	1.797387899e0	1.664767785e0	2.518396953e0
2.734319500e0	-4.521235250e-1	1.415104541e0	2.021281879e0	2.508488983e0
2.744300500e0	-3.613586582e-1	9.173375040e-1	2.145582574e0	2.361273546e0
2.754281500e0	-3.009010796e-1	3.901022547e-1	1.973774421e0	2.034332002e0
2.764263500e0	-3.438075095e-1	-1.070882463e-1	1.646192350e0	1.685117429e0
2.774244500e0	-4.300097939e-1	-4.640993536e-1	1.100980421e0	1.269824602e0
2.784225500e0	-5.109783818e-1	-7.072979164e-1	4.472693858e-1	9.805198380e-1
2.794207500e0	-5.753310831e-1	-7.879509008e-1	-2.335938533e-1	1.003214117e0
2.804188500e0	-5.884528197e-1	-6.702657455e-1	-8.586134056e-1	1.238042758e0
2.814169500e0	-5.542447078e-1	-4.153534555e-1	-1.382399894e0	1.546200232e0
2.824151500e0	-4.803224534e-1	-1.413634551e-1	-1.715647332e0	1.787215447e0
2.834132500e0	-3.178151742e-1	9.702284932e-2	-1.745494444e0	1.776842923e0
2.844113500e0	-7.565010667e-2	3.438156956e-1	-1.472582670e0	1.514077902e0
2.854095500e0	1.952439393e-1	5.905676115e-1	-9.859049515e-1	1.165718179e0
2.864076500e0	4.372730590e-1	8.229505795e-1	-4.612272743e-1	1.039800934e0
2.874057500e0	6.788115974e-1	1.071999866e0	-1.025674716e-3	1.268845913e0
2.884039500e0	9.582526647e-1	1.236187343e0	3.409288522e-1	1.600824724e0
2.894020500e0	1.268559575e0	1.324851598e0	5.718361292e-1	1.921320304e0
2.904001500e0	1.582008926e0	1.379047101e0	6.306345604e-1	2.191397521e0
2.913983500e0	1.818537570e0	1.393874470e0	6.595396131e-1	2.384314877e0
2.923964500e0	1.968832355e0	1.364030866e0	6.421470702e-1	2.479764889e0
2.933945500e0	2.013499527e0	1.278727591e0	6.196159210e-1	2.464396171e0
2.943927500e0	1.903540590e0	1.170468732e0	6.522077894e-1	2.327839950e0
2.953908500e0	1.665919394e0	1.094236243e0	7.125463041e-1	2.116686708e0
2.963889500e0	1.400669227e0	1.090054314e0	7.456889071e-1	1.925134966e0
2.973871500e0	1.151962879e0	1.055583808e0	7.738462472e-1	1.743592173e0
2.983852500e0	9.322686616e-1	9.870684743e-1	7.438874531e-1	1.548159415e0
2.993833500e0	7.655506562e-1	8.577274793e-1	6.929143506e-1	1.342346652e0
3.003815500e0	5.874579160e-1	7.744748229e-1	6.273220396e-1	1.156914429e0
3.013796500e0	3.655325469e-1	7.699566793e-1	5.536599132e-1	1.016359499e0
3.023777500e0	9.701583266e-2	7.934624863e-1	5.514484962e-1	9.711283298e-1
3.033759500e0	-1.223325223e-1	7.686433947e-1	6.169257633e-1	9.931642924e-1
3.043740500e0	-2.864761448e-1	7.136000454e-1	7.222345557e-1	1.054948511e0
3.053721500e0	-4.840614554e-1	6.268530929e-1	8.721367729e-1	1.178084396e0
3.063703500e0	-6.680420494e-1	5.297770339e-1	9.868047649e-1	1.304119446e0
3.073684500e0	-7.655141111e-1	3.959991717e-1	1.040294582e0	1.350940419e0
3.083665500e0	-8.164171931e-1	2.797296274e-1	1.025911528e0	1.340626779e0
3.093647500e0	-8.581141265e-1	1.924651963e-1	9.360046669e-1	1.284331516e0
3.103628500e0	-9.412648952e-1	6.158521414e-2	8.374388105e-1	1.261378652e0
3.113609500e0	-1.007991420e0	-4.821263194e-2	7.153800110e-1	1.236988165e0
3.123591500e0	-1.110844528e0	-1.018994272e-1	5.674589036e-1	1.251546510e0
3.133572500e0	-1.306830479e0	-1.070543325e-1	4.077029586e-1	1.373130814e0
3.143553500e0	-1.431003705e0	-2.264082831e-1	2.392750812e-1	1.468429392e0
3.153535500e0	-1.508066645e0	-5.272182924e-1	1.254315100e-1	1.602484695e0
3.163516500e0	-1.506559086e0	-1.145715129e0	1.640389574e-1	1.899813732e0
3.173497500e0	-1.385387090e0	-1.784058001e0	3.105630919e-1	2.280046003e0
3.183479500e0	-1.314446039e0	-2.516886615e0	5.530296199e-1	2.892806316e0
3.193460500e0	-1.309436729e0	-2.993761550e0	5.931239776e-1	3.320998166e0
3.203441500e0	-1.455611858e0	-2.994883631e0	3.727517752e-1	3.350683174e0
3.213423500e0	-1.655673611e0	-2.767116455e0	-4.014230490e-2	3.224872088e0
3.223404500e0	-1.755090602e0	-2.267474216e0	-6.588297611e-1	2.942080726e0
3.233385500e0	-1.741873118e0	-1.592223719e0	-1.279959015e0	2.684696148e0
3.243367500e0	-1.696260158e0	-9.437821215e-1	-1.855769423e0	2.685498719e0
3.253348500e0	-1.602429596e0	-3.035143465e-1	-2.312387849e0	2.829671206e0
3.263329500e0	-1.366408344e0	2.070814812e-1	-2.426086957e0	2.792105375e0
3.273311500e0	-9.448229259e-1	4.814632452e-1	-2.089266286e0	2.342974782e0
3.283292500e0	-4.653196675e-1	5.291940665e-1	-1.405766537e0	1.572497475e0
3.293273500e0	1.492472559e-2	4.881752640e-1	-5.055011487e-1	7.029005955e-1
3.303255500e0	3.135464144e-1	6.142523432e-1	3.983766496e-1	7.964428730e-1
3.313236500e0	4.659309939e-1	6.565043235e-1	1.234004577e0	1.473382813e0
3.323217500e0	5.968731026e-1	7.112243217e-1	1.896974752e0	2.112015802e0
3.333199500e0	7.586787160e-1	8.048581249e-1	2.198791652e0	2.461315649e0
3.343180500e0	9.294362703e-1	6.864794898e-1	2.189953001e0	2.476085624e0
3.353161500e0	9.474531497e-1	4.806171530e-1	1.834931116e0	2.120290669e0
3.363143500e0	8.441847432e-1	3.064221668e-1	1.216198636e0	1.511847065e0
3.373124500e0	6.766018615e-1	2.244038576e-1	4.289505708e-1	8.319529809e-1
3.383105500e0	5.552572994e-1	1.842709082e-1	-4.061920381e-1	7.122207579e-1
3.393087500e0	4.320090301e-1	1.131161410e-1	-1.103639735e0	1.190566138e0
3.403068500e0	3.144518557e-1	9.854780316e-2	-1.549266565e0	1.583925039e0
3.413049500e0	2.723478831e-1	2.600204176e-1	-1.788235252e0	1.827448851e0
3.423031500e0	1.853421912e-1	4.724684733e-1	-1.753865903e0	1.825821402e0
3.433012500e0	3.295271471e-2	6.950643718e-1	-1.388830662e0	1.553399810e0
3.442993500e0	-7.343803190e-2	9.547994453e-1	-9.480020571e-1	1.347495093e0
3.452975500e0	2.843340173e-2	1.207573993e0	-5.081616318e-1	1.310447119e0
3.462956500e0	1.719683665e-1	1.320483727e0	-1.331785226e-1	1.338277592e0
3.472937500e0	3.377848774e-1	1.324086782e0	1.260320556e-1	1.372293157e0
3.482918000e0	5.079743747e-1	1.249442981e0	2.678539324e-1	1.375096890e0
3.492900000e0	5.410158210e-1	1.235065262e0	3.029068208e-1	1.381968474e0
3.502881000e0	4.632645173e-1	1.234587545e0	2.970350468e-1	1.351684223e0
3.512862000e0	3.814139501e-1	1.122524487e0	3.051843113e-1	1.224203941e0
3.522844000e0	3.721621931e-1	9.476108783e-1	3.051100516e-1	1.062809117e0
3.532825000e0	3.555403863e-1	7.790222025e-1	2.356837213e-1	8.881617954e-1
3.542806000e0	2.316006106e-1	6.762509555e-1	4.562582374e-2	7.162652535e-1
3.552788000e0	-1.708994955e-3	6.389410418e-1	-2.906873095e-1	7.019598902e-1
3.562769000e0	-2.682926928e-1	5.440945262e-1	-5.545043242e-1	8.218849481e-1
3.572750000e0	-4.583803381e-1	3.895111012e-1	-6.906017768e-1	9.158396402e-1
3.582732000e0	-5.716397358e-1	2.612138343e-1	-7.666927636e-1	9.913740205e-1
3.592713000e0	-6.701057511e-1	1.070250964e-1	-7.575991738e-1	1.017080428e0
3.602694000e0	-6.787404806e-1	-9.299879551e-2	-7.133649874e-1	9.890535988e-1
3.612676000e0	-6.881131288e-1	-2.267643785e-1	-7.390453738e-1	1.034944359e0
3.622657000e0	-7.930400249e-1	-3.141393220e-1	-8.088248760e-1	1.175497203e0
3.632638000e0	-9.455261998e-1	-3.650691551e-1	-8.896293032e-1	1.348605050e0
3.642620000e0	-1.066310014e0	-4.517634827e-1	-9.101132691e-1	1.472892886e0
3.652601000e0	-1.140249518e0	-6.121192789e-1	-7.997353792e-1	1.521326938e0
3.662582000e0	-1.210337387e0	-7.578196138e-1	-6.670977241e-1	1.576142929e0
3.672564000e0	-1.247163444e0	-8.330036974e-1	-5.566619102e-1	1.599745073e0
3.682545000e0	-1.256587401e0	-9.170012891e-1	-4.541397911e-1	1.620538864e0
3.692526000e0	-1.233223097e0	-9.882390869e-1	-3.424649888e-1	1.617015142e0
3.702508000e0	-1.200088022e0	-1.066382446e0	-2.658542029e-1	1.627286465e0
3.712489000e0	-1.241362129e0	-1.160665290e0	-1.340649605e-1	1.704727915e0
3.722470000e0	-1.337250034e0	-1.426982574e0	1.576444423e-1	1.961980808e0
3.732452000e0	-1.361111351e0	-1.926941147e0	4.818035531e-1	2.407874781e0
3.742433000e0	-1.354775893e0	-2.444306881e0	6.579614496e-1	2.871056795e0
3.752414000e0	-1.350281431e0	-2.833669463e0	5.354763150e-1	3.184286020e0
3.762396000e0	-1.401234360e0	-2.915443944e0	1.544659324e-1	3.238383987e0
3.772377000e0	-1.415436078e0	-2.632720542e0	-4.084637179e-1	3.016872445e0
3.782358000e0	-1.322478213e0	-2.067687721e0	-1.026223769e0	2.660341399e0
3.792340000e0	-1.187148719e0	-1.526366529e0	-1.493839638e0	2.443496210e0
3.802321000e0	-1.045042813e0	-1.078382102e0	-1.698661755e0	2.267261388e0
3.812302000e0	-9.113089516e-1	-5.341133291e-1	-1.672640476e0	1.978253577e0
3.822284000e0	-8.059115008e-1	3.329696953e-2	-1.334217083e0	1.559082185e0
3.832265000e0	-7.109579811e-1	5.663086832e-1	-7.558952951e-1	1.182177852e0
3.842246000e0	-6.471981874e-1	1.046092608e0	-4.205492914e-2	1.230830555e0
3.852228000e0	-6.416412860e-1	1.366347533e0	7.515917444e-1	1.686267853e0
3.862209000e0	-6.404817101e-1	1.491856263e0	1.422581960e0	2.158608664e0
3.872190000e0	-5.648047793e-1	1.369338384e0	1.869006350e0	2.384801204e0
3.882172000e0	-5.100228006e-1	1.021303337e0	2.034053367e0	2.332500132e0
3.892153000e0	-5.252755550e-1	5.764968717e-1	1.857565103e0	2.014649142e0
3.902134000e0	-5.078243937e-1	1.076004624e-1	1.369741842e0	1.464805853e0
3.912116000e0	-4.302432440e-1	-3.248210156e-1	7.409556592e-1	9.163150277e-1
3.922097000e0	-3.695259029e-1	-6.278050196e-1	1.167618799e-1	7.377817239e-1
3.932078000e0	-2.314962378e-1	-7.194870222e-1	-5.205799484e-1	9.177448261e-1
3.942060000e0	-1.057536194e-1	-5.467520857e-1	-1.069739333e0	1.206011572e0
3.952041000e0	1.170961214e-1	-5.816342354e-2	-1.517775800e0	1.523396818e0
3.962022000e0	3.006097421e-1	3.841492045e-1	-1.579714186e0	1.653309934e0
3.972004000e0	5.038141539e-1	7.831415659e-1	-1.300043616e0	1.599141275e0
3.981985000e0	6.995319369e-1	1.206311579e0	-7.330174792e-1	1.575387947e0
3.991966000e0	8.246222985e-1	1.554180565e0	-1.712649465e-3	1.759398220e0
4.001948000e0	8.356295358e-1	1.878761845e0	7.291700113e-1	2.181676350e0
4.011929000e0	8.140587187e-1	2.144610182e0	1.369862294e0	2.671809712e0
4.021910000e0	8.007361302e-1	2.274118992e0	1.855328543e0	3.042209648e0
4.031892000e0	7.161881693e-1	2.256445198e0	2.127770201e0	3.183060862e0
4.041873000e0	5.923859493e-1	2.102167583e0	2.114430363e0	3.039875889e0
4.051854000e0	4.923001823e-1	1.814503868e0	1.853960295e0	2.640445518e0
4.061836000e0	3.550205688e-1	1.506794729e0	1.382562447e0	2.075559895e0
4.071817000e0	2.147872344e-1	1.210682373e0	8.682980758e-1	1.505266393e0
4.081798000e0	1.136216328e-1	9.229116547e-1	3.760174817e-1	1.003027888e0
4.091779000e0	9.389108062e-2	5.759729612e-1	2.015182575e-2	5.839233538e-1
4.101761000e0	2.151383597e-1	2.008413327e-1	-1.250555706e-1	3.197821922e-1
4.111742000e0	2.089281781e-1	4.685549319e-2	-2.578090189e-1	3.351296929e-1
4.121723000e0	2.142624468e-2	-7.720663548e-3	-2.387675428e-1	2.398512708e-1
4.131705000e0	-2.169409101e-1	1.087231278e-1	-3.969891419e-1	4.652789011e-1
4.141686000e0	-4.540188999e-1	3.604194492e-1	-5.272341164e-1	7.835886385e-1
4.151667000e0	-6.851838930e-1	5.654076272e-1	-5.907372173e-1	1.066833263e0
4.161649000e0	-8.545676440e-1	7.387419033e-1	-6.254544389e-1	1.291208238e0
4.171630000e0	-9.509345819e-1	7.676949763e-1	-4.952942856e-1	1.318691998e0
4.181611000e0	-1.008940423e0	8.045973390e-1	-1.386351077e-1	1.297904984e0
4.191593000e0	-9.547566144e-1	8.284358525e-1	3.172020571e-1	1.303258723e0
4.201574000e0	-8.951115064e-1	7.757448381e-1	8.500752282e-1	1.457954923e0
4.211555000e0	-7.956638168e-1	6.842961395e-1	1.320814680e0	1.686977633e0
4.221537000e0	-7.114842305e-1	5.722272348e-1	1.654100125e0	1.889365248e0
4.231518000e0	-7.459763709e-1	3.176371264e-1	1.861999047e0	2.030865466e0
4.241499000e0	-8.788102001e-1	-1.086061835e-2	1.916793305e0	2.108677760e0
4.251481000e0	-1.035787767e0	-3.171974158e-1	1.761734501e0	2.068134172e0
4.261462000e0	-1.129320706e0	-6.220653927e-1	1.539790567e0	2.008304160e0
4.271443000e0	-1.123705186e0	-9.661646783e-1	1.361987264e0	2.012758515e0
4.281425000e0	-1.002629231e0	-1.300842930e0	1.142357658e0	2.000609588e0
4.291406000e0	-8.558407290e-1	-1.596526101e0	9.210458082e-1	2.032162475e0
4.301387000e0	-7.944953969e-1	-1.881105409e0	7.201875186e-1	2.165283020e0
4.311369000e0	-7.888427474e-1	-2.281594073e0	6.711293793e-1	2.505665388e0
4.321350000e0	-7.742013194e-1	-2.782753664e0	7.672751462e-1	2.988614526e0
4.331331000e0	-6.872103918e-1	-3.178265762e0	7.953873166e-1	3.347577088e0
4.341313000e0	-6.029546455e-1	-3.353065351e0	6.842551359e-1	3.474882249e0
4.351294000e0	-5.655083455e-1	-3.190417446e0	4.256334088e-1	3.267985154e0
4.361275000e0	-5.300398663e-1	-2.779903146e0	-2.020563841e-2	2.830055128e0
4.371257000e0	-5.203128769e-1	-2.103817082e0	-5.063268121e-1	2.225564792e0
4.381238000e0	-4.419376753e-1	-1.132564157e0	-1.031206766e0	1.594176236e0
4.391219000e0	-4.151983581e-1	-1.312454331e-1	-1.391149083e0	1.457707382e0
4.401201000e0	-4.753584597e-1	7.818107396e-1	-1.494883951e0	1.752675590e0
4.411182000e0	-5.719986087e-1	1.519830512e0	-1.256581262e0	2.053305545e0
4.421163000e0	-6.322984587e-1	1.811782574e0	-7.455843151e-1	2.058701874e0
4.431145000e0	-4.150768822e-1	1.602158139e0	-7.981449366e-2	1.656976123e0
4.441126000e0	6.452709451e-2	1.128167050e0	5.983146240e-1	1.278634048e0
4.451107000e0	5.463015577e-1	6.225238144e-1	1.148022441e0	1.415604753e0
4.461089000e0	8.325262722e-1	2.981600511e-1	1.475536684e0	1.720234843e0
4.471070000e0	9.842150331e-1	1.384047639e-1	1.581525654e0	1.867902166e0
4.481051000e0	9.419746010e-1	3.772272706e-2	1.518083364e0	1.786985241e0
4.491033000e0	6.826255900e-1	-1.025180626e-1	1.298882943e0	1.470912829e0
4.501014000e0	3.382367210e-1	-2.543983197e-1	9.183531654e-1	1.011185008e0
4.510995000e0	1.467721295e-1	-3.984900856e-1	3.803894448e-1	5.701162479e-1
4.520977000e0	1.135638915e-1	-4.428073025e-1	-2.591667606e-1	5.254926017e-1
4.530958000e0	1.144009204e-1	-4.015236211e-1	-9.421718714e-1	1.030532204e0
4.540939000e0	5.934251457e-2	-4.379447579e-1	-1.504440640e0	1.568011092e0
4.550921000e0	1.155522372e-1	-2.498801762e-1	-2.087093461e0	2.105172567e0
4.560902000e0	1.678611360e-1	2.518629670e-2	-2.448525063e0	2.454401494e0
4.570883000e0	1.873586766e-1	2.775000840e-1	-2.525928165e0	2.548023286e0
4.580865000e0	1.479190609e-1	5.190035391e-1	-2.267667174e0	2.330999600e0
4.590846000e0	1.752673656e-1	7.936308861e-1	-1.808809265e0	1.983017799e0
4.600827000e0	4.106128255e-1	1.120509537e0	-1.256208209e0	1.732686810e0
4.610809000e0	6.750551999e-1	1.389717100e0	-6.270706824e-1	1.667402405e0
4.620790000e0	8.687889495e-1	1.576214628e0	-8.106462836e-2	1.801615460e0
4.630771000e0	1.008485363e0	1.697087685e0	3.530561236e-1	2.005442087e0
4.640753000e0	1.107745357e0	1.636844991e0	6.998017129e-1	2.096683987e0
4.650734000e0	1.284713970e0	1.610043109e0	8.580028832e-1	2.231344381e0
4.660715000e0	1.523009351e0	1.570690763e0	9.087263826e-1	2.369052678e0
4.670696000e0	1.628246661e0	1.489991001e0	9.303563297e-1	2.395166648e0
4.680678000e0	1.565344215e0	1.349967143e0	9.411970675e-1	2.271247613e0
4.690659000e0	1.354191318e0	1.199072726e0	8.029759061e-1	1.978984546e0
4.700640000e0	1.067291542e0	1.087210813e0	6.362203324e-1	1.651034494e0
4.710622000e0	7.952733690e-1	9.787747836e-1	3.595124730e-1	1.311376768e0
4.720603000e0	5.784877025e-1	8.268290377e-1	3.388220273e-2	1.009674345e0
4.730584000e0	3.822978298e-1	5.674143916e-1	-1.892884771e-1	7.098879138e-1
4.740566000e0	2.379315372e-1	3.101217002e-1	-3.131465379e-1	5.008469222e-1
4.750547000e0	1.840121689e-1	5.505679786e-2	-3.204174775e-1	3.735760822e-1
4.760528000e0	1.271118902e-1	-2.245763505e-1	-2.320936040e-1	3.470726305e-1
4.770510000e0	2.560524970e-2	-5.690106815e-1	-1.179034026e-1	5.816614108e-1
4.780491000e0	-9.937913105e-2	-1.000904741e0	-7.363815285e-2	1.008518264e0
4.790472000e0	-2.446011637e-1	-1.314200894e0	-1.206053279e-1	1.342199450e0
4.800454000e0	-4.152828504e-1	-1.501813486e0	-2.446949384e-1	1.577269541e0
4.810435000e0	-5.496650223e-1	-1.602836416e0	-4.618143348e-1	1.756271247e0
4.820416000e0	-5.904711324e-1	-1.657494434e0	-7.107198532e-1	1.897647666e0
4.830398000e0	-5.894411454e-1	-1.725829673e0	-9.153991520e-1	2.040559858e0
4.840379000e0	-6.083009009e-1	-1.928936802e0	-9.547112254e-1	2.236582370e0
4.850360000e0	-5.891126780e-1	-2.424752623e0	-7.100497623e-1	2.594349571e0
4.860342000e0	-4.156909861e-1	-3.022567273e0	-3.714018358e-1	3.073540506e0
4.870323000e0	-2.249634361e-1	-3.468892846e0	-1.295778072e-1	3.478594045e0
4.880304000e0	-6.171429142e-2	-3.575218615e0	-2.321766344e-1	3.583281009e0
4.890286000e0	8.019982517e-2	-3.112220292e0	-6.551834375e-1	3.181448176e0
4.900267000e0	1.420461175e-1	-2.332092966e0	-1.159511050e0	2.608313742e0
4.910248000e0	1.014699492e-1	-1.590691749e0	-1.574339426e0	2.240343951e0
4.920230000e0	7.030151233e-2	-9.183900028e-1	-1.927690176e0	2.136439073e0
4.930211000e0	1.393463118e-1	-2.166574663e-1	-2.074806122e0	2.090736304e0
4.940192000e0	2.280795635e-1	5.044223374e-1	-1.925079979e0	2.003096380e0
4.950174000e0	2.744567545e-1	1.076947780e0	-1.509959242e0	1.874865314e0
4.960155000e0	2.483882591e-1	1.382319202e0	-8.278523004e-1	1.630289096e0
4.970136000e0	1.591955625e-1	1.408224707e0	2.318779148e-2	1.417384113e0
4.980118000e0	-1.315038800e-3	1.360498563e0	8.330101293e-1	1.595262970e0
4.990099000e0	-1.996777368e-1	1.359819117e0	1.386364306e0	1.952174485e0
5.000080000e0	-4.646736963e-1	1.247732086e0	1.924359017e0	2.340067227e0
5.010062000e0	-6.867635183e-1	1.132233204e0	2.152023282e0	2.526816251e0
5.020043000e0	-7.080118614e-1	1.018159289e0	2.121283300e0	2.457187818e0
5.030024000e0	-5.474280238e-1	9.782309926e-1	1.885591393e0	2.193642682e0
5.040006000e0	-3.929391776e-1	1.075629233e0	1.457102167e0	1.853247466e0
5.049987000e0	-3.120295005e-1	1.212855198e0	9.626469934e-1	1.579578860e0
5.059968000e0	-3.134190913e-1	1.279001825e0	4.654447248e-1	1.396680346e0
5.069950000e0	-2.951534128e-1	1.227082644e0	7.670962214e-2	1.264409632e0
5.079931000e0	-2.668071346e-1	1.180990212e0	-2.152115230e-1	1.229731649e0
5.089912000e0	-2.741461211e-1	1.165408552e0	-3.826757061e-1	1.256890562e0
5.099894000e0	-2.960154386e-1	1.145153212e0	-4.056019809e-1	1.250405528e0
5.109875000e0	-1.828741546e-1	1.090219790e0	-3.641680261e-1	1.163890243e0
5.119856000e0	-6.521414235e-2	1.111711231e0	-1.548014530e-1	1.124330128e0
5.129837000e0	-7.371307030e-2	1.196649640e0	9.460802235e-2	1.202644859e0
5.139819000e0	-1.638000986e-1	1.285084684e0	2.980781901e-1	1.329332060e0
5.149800000e0	-2.360240293e-1	1.286918371e0	4.109317911e-1	1.371397525e0
5.159781000e0	-2.855459990e-1	1.201101710e0	4.650629381e-1	1.319266983e0
5.169763000e0	-2.952108617e-1	1.027141197e0	4.791219835e-1	1.171207226e0
5.179744000e0	-1.579053743e-1	8.622356826e-1	3.858027240e-1	9.577203253e-1
5.189725000e0	5.508808047e-2	8.085401165e-1	3.590073466e-1	8.863735621e-1
5.199707000e0	1.471298330e-1	8.217975086e-1	3.360809622e-1	8.999715251e-1
5.209688000e0	1.392619658e-1	8.281481695e-1	3.202028847e-1	8.987508960e-1
5.219669000e0	5.606602728e-2	8.231698501e-1	3.758502513e-1	9.066506565e-1
5.229651000e0	-3.704430386e-2	8.442619264e-1	5.170032432e-1	9.906779670e-1
5.239632000e0	-1.009815605e-1	8.902526164e-1	6.578211164e-1	1.111519509e0
5.249613000e0	-1.057305229e-1	9.896131825e-1	7.448072201e-1	1.243081248e0
5.259595000e0	-6.045787096e-2	1.045578053e0	8.829786801e-1	1.369868595e0
5.269576000e0	-1.245914479e-1	1.072692761e0	1.100058900e0	1.541532475e0
5.279557000e0	-2.975121796e-1	1.037007204e0	1.277277482e0	1.671925598e0
5.289539000e0	-5.512597042e-1	9.382711208e-1	1.420165890e0	1.789164921e0
5.299520000e0	-8.437087798e-1	8.918442285e-1	1.561232892e0	1.986121541e0
5.309501000e0	-1.144913330e0	7.895050907e-1	1.643641795e0	2.153068316e0
5.319483000e0	-1.311693316e0	6.614440513e-1	1.603126438e0	2.174410716e0
5.329464000e0	-1.402045369e0	5.154297209e-1	1.582144289e0	2.175908906e0
5.339445000e0	-1.424519289e0	2.958088857e-1	1.571444469e0	2.141540525e0
5.349427000e0	-1.422915105e0	3.433017254e-2	1.581937298e0	2.128001779e0
5.359408000e0	-1.464574909e0	-2.385260528e-1	1.591653031e0	2.176059216e0
5.369389000e0	-1.545239734e0	-5.196139884e-1	1.591530824e0	2.278318436e0
5.379371000e0	-1.688020846e0	-8.271477109e-1	1.584911191e0	2.458766194e0
5.389352000e0	-1.905841616e0	-1.115694355e0	1.480892733e0	2.658956458e0
5.399333000e0	-2.085859990e0	-1.355868153e0	1.330515211e0	2.821251686e0
5.409315000e0	-2.142906450e0	-1.522561746e0	1.243817375e0	2.908147862e0
5.419296000e0	-2.198457483e0	-1.526144335e0	1.217247627e0	2.940072044e0
5.429277000e0	-2.328598231e0	-1.532848753e0	1.248730205e0	3.054721288e0
5.439259000e0	-2.439692551e0	-1.611626535e0	1.312954268e0	3.205197146e0
5.449240000e0	-2.471488248e0	-1.777691553e0	1.361892539e0	3.335145080e0
5.459221000e0	-2.470359735e0	-2.064006899e0	1.357219445e0	3.493543519e0
5.469203000e0	-2.410437762e0	-2.467294625e0	1.263316669e0	3.673380184e0
5.479184000e0	-2.272950134e0	-2.994407668e0	1.130842152e0	3.925758979e0
5.489165125e0	-2.090007128e0	-3.496126252e0	9.432810152e-1	4.181005578e0
5.499147125e0	-1.864941950e0	-3.737151990e0	6.253632224e-1	4.223196968e0
5.509128125e0	-1.683270568e0	-3.597439789e0	2.009676691e-1	3.976853133e0
5.519109125e0	-1.649328358e0	-3.142213000e0	-3.105712780e-1	3.562336465e0
5.529091125e0	-1.646633669e0	-2.334800227e0	-8.238147249e-1	2.973443330e0
5.539072125e0	-1.616229171e0	-1.226716023e0	-1.202831901e0	2.358777971e0
5.549053125e0	-1.460678324e0	-2.490919715e-1	-1.376972508e0	2.022790465e0
5.559034125e0	-1.187550422e0	3.775763494e-1	-1.206270064e0	1.734337733e0
5.569016125e0	-8.663282950e-1	6.219215512e-1	-7.203535795e-1	1.286942271e0
5.578997125e0	-4.909325185e-1	5.700181568e-1	-1.076302832e-1	7.599471789e-1
5.588978125e0	-1.581125119e-1	4.941131115e-1	3.023519200e-1	6.004698301e-1
5.598960125e0	1.916177154e-1	4.432873589e-1	6.103218448e-1	7.782761629e-1
5.608941125e0	6.580232839e-1	5.482571590e-1	1.200295379e0	1.474547236e0
5.618922125e0	1.107275534e0	8.874149626e-1	1.581542026e0	2.124815193e0
5.628904125e0	1.449003773e0	1.134894272e0	1.681003164e0	2.492662950e0
5.638885125e0	1.482105154e0	8.674695253e-1	1.646780580e0	2.379290933e0
5.648866125e0	1.361706159e0	4.877478325e-1	1.400477731e0	2.013325479e0
5.658848125e0	1.223259588e0	2.429471326e-1	1.193952320e0	1.726531051e0
5.668829125e0	1.035503154e0	9.309585929e-2	9.525874436e-1	1.410090940e0
5.678810125e0	8.354656675e-1	-6.703949690e-2	5.652696329e-1	1.010953478e0
5.688792125e0	5.807608075e-1	-2.654910725e-1	5.761674542e-2	6.411616914e-1
5.698773125e0	2.971056519e-1	-3.594084656e-1	-4.754739787e-1	6.659742623e-1
5.708754125e0	2.077948415e-1	-2.146530408e-1	-1.056215308e0	1.097654500e0
5.718736125e0	3.009379171e-1	7.925783873e-2	-1.594189553e0	1.624280076e0
5.728717125e0	5.588235162e-1	4.201838404e-1	-2.015908288e0	2.133711416e0
5.738698125e0	8.046799310e-1	8.082191044e-1	-2.223906028e0	2.499297088e0
5.748680125e0	9.048235855e-1	1.037707701e0	-2.155945594e0	2.558054808e0
5.758661125e0	9.141172962e-1	1.289015767e0	-1.857250523e0	2.438555225e0
5.768642125e0	9.031618068e-1	1.583497335e0	-1.499489803e0	2.360431047e0
5.778624125e0	8.787495352e-1	1.791557055e0	-1.083677268e0	2.270734209e0
5.788605125e0	8.954991768e-1	1.919237441e0	-7.191910800e-1	2.236655302e0
5.798586125e0	9.196252272e-1	1.997459153e0	-3.794854653e-1	2.231493411e0
5.808568125e0	1.002245069e0	2.013747157e0	-1.071497152e-1	2.251922257e0
5.818549125e0	1.094553016e0	1.863055639e0	9.739407443e-2	2.162985951e0
5.828530125e0	1.006873140e0	1.524852101e0	1.719185921e-1	1.835353767e0
5.838512125e0	7.778033504e-1	1.180610728e0	-4.298872948e-3	1.413802752e0
5.848493125e0	5.739338909e-1	9.356129766e-1	-3.448115496e-1	1.150507174e0
5.858474125e0	4.627362214e-1	7.845115685e-1	-6.603717450e-1	1.125021801e0
5.868456125e0	3.877348633e-1	7.157734555e-1	-9.308241800e-1	1.236569294e0
5.878437125e0	2.452385102e-1	6.140102684e-1	-1.078638868e0	1.265153091e0
5.888418125e0	1.418977444e-1	4.564354080e-1	-1.083261092e0	1.184028228e0
5.898400125e0	8.918816507e-2	2.998919964e-1	-9.882268077e-1	1.036572217e0
5.908381125e0	6.519206911e-3	2.161604530e-1	-9.462968628e-1	9.706933574e-1
5.918362125e0	-1.236905381e-1	2.263351929e-1	-9.357088709e-1	9.706070574e-1
5.928344125e0	-2.318434162e-1	2.669704181e-1	-9.664173511e-1	1.029070974e0
5.938325125e0	-3.859589177e-1	2.591269630e-1	-9.997195101e-1	1.102519917e0
5.948306125e0	-5.331409371e-1	1.830593652e-1	-9.675376046e-1	1.119767389e0
5.958288125e0	-6.309619313e-1	5.677646399e-4	-8.846445519e-1	1.086604465e0
5.968269125e0	-6.711635855e-1	-2.282735449e-1	-7.136199260e-1	1.005894015e0
5.978250125e0	-6.125205441e-1	-4.548104668e-1	-4.891916563e-1	9.062794570e-1
5.988231125e0	-4.692856877e-1	-6.836049986e-1	-2.931105419e-1	8.794649740e-1
5.998213125e0	-4.092039388e-1	-1.000122383e0	-1.830804151e-1	1.095997757e0
6.008194125e0	-4.637758563e-1	-1.387945393e0	-1.713772861e-1	1.473380682e0
6.018175125e0	-5.919801526e-1	-1.666144220e0	-2.764003690e-1	1.789657572e0
6.028157125e0	-6.831791751e-1	-1.892412170e0	-4.320695487e-1	2.057824507e0
6.038138125e0	-7.044460832e-1	-2.136001326e0	-5.414587475e-1	2.313422470e0
6.048119125e0	-5.907519449e-1	-2.398950614e0	-5.981953774e-1	2.542005039e0
6.058101125e0	-4.886484499e-1	-2.701428249e0	-6.431634624e-1	2.819601237e0
6.068082125e0	-5.487342918e-1	-3.093339048e0	-7.984489918e-1	3.241508381e0
6.078063125e0	-6.355245137e-1	-3.436191123e0	-1.113217474e0	3.667499691e0
6.088045125e0	-6.483704080e-1	-3.179531685e0	-1.706978689e0	3.666549081e0
6.098026125e0	-5.591312259e-1	-2.223854572e0	-2.417809054e0	3.332260120e0
6.108007125e0	-3.730725315e-1	-9.742186332e-1	-2.912866491e0	3.094038826e0
6.117989125e0	-2.830745271e-1	1.260659695e-1	-2.967539127e0	2.983674293e0
6.127970125e0	-2.014690313e-1	9.184905750e-1	-2.579425510e0	2.745478222e0
6.137951125e0	-1.104042023e-1	1.290830158e0	-1.882889979e0	2.285542880e0
6.147933125e0	-9.328823268e-2	1.102726400e0	-7.621937697e-1	1.343743856e0
6.157914125e0	-5.120041296e-2	5.759308612e-1	3.927345981e-1	6.989694584e-1
6.167895125e0	2.324686298e-1	7.361410618e-2	1.188117968e0	1.212882932e0
6.177877125e0	5.714758676e-1	-3.010322034e-1	1.768786828e0	1.883032633e0
6.187858125e0	6.692112002e-1	-2.729778475e-1	1.990167090e0	2.117339270e0
6.197839125e0	4.039491923e-1	-1.693944222e-1	1.898349432e0	1.948229963e0
6.207821125e0	-8.158459201e-2	-2.534656888e-1	1.571927303e0	1.594320026e0
6.217802125e0	-3.995174414e-1	-3.604001534e-1	1.089979981e0	1.215548772e0
6.227783125e0	-4.836636986e-1	-2.888887060e-1	2.406912037e-1	6.126332617e-1
6.237765125e0	-4.458696355e-1	-2.530341643e-1	-5.705772237e-1	7.670621802e-1
6.247746125e0	-3.139199053e-1	-9.521021247e-2	-1.211049651e0	1.254691974e0
6.257727125e0	-1.323938262e-1	2.488177371e-1	-1.617310613e0	1.641685723e0
6.267709125e0	3.713946730e-2	6.668223202e-1	-1.689777496e0	1.816969822e0
6.277690125e0	2.277075344e-1	1.068416108e0	-1.397123183e0	1.773504127e0
6.287671125e0	4.510881293e-1	1.333310180e0	-8.305700862e-1	1.634332648e0
6.297653125e0	7.446288800e-1	1.562135117e0	-1.921196258e-1	1.741162900e0
6.307634125e0	1.077882750e0	1.725926152e0	3.698381442e-1	2.068195484e0
6.317615125e0	1.256431281e0	1.804689317e0	7.983951974e-1	2.339435399e0
6.327596125e0	1.242566363e0	1.820239987e0	1.026754696e0	2.431351472e0
6.337578125e0	1.130537804e0	1.800206841e0	1.109846043e0	2.398044753e0
6.347559125e0	9.593719679e-1	1.706726235e0	1.022834211e0	2.208958768e0
6.357541125e0	7.929837455e-1	1.470606896e0	7.690082610e-1	1.839261148e0
6.367522125e0	6.431662399e-1	1.165661736e0	4.718919379e-1	1.412484370e0
6.377503125e0	5.344941290e-1	1.085794618e0	6.396733325e-2	1.211909958e0
6.387484125e0	4.943449536e-1	1.033246275e0	-1.788681541e-1	1.159296603e0
6.397466125e0	5.386661173e-1	8.853503108e-1	-2.036205508e-1	1.056157037e0
6.407447125e0	5.737027797e-1	8.198626649e-1	-1.596266484e-1	1.013306635e0
6.417428125e0	5.125002658e-1	8.665421569e-1	-8.287258744e-2	1.010158254e0
6.427410125e0	3.409119684e-1	8.972961724e-1	8.278721809e-2	9.634392117e-1
6.437391125e0	1.458402295e-1	9.531715804e-1	2.788583557e-1	1.003776577e0
6.447372125e0	2.800860152e-2	1.039418596e0	5.074271484e-1	1.157003807e0
6.457354125e0	-7.086138323e-2	1.058460054e0	7.427741432e-1	1.295018320e0
6.467335125e0	-1.656311542e-1	1.022177496e0	9.000490415e-1	1.371994457e0
6.477316125e0	-2.853096253e-1	1.008566347e0	9.536685938e-1	1.417071433e0
6.487297625e0	-4.670758787e-1	9.711757421e-1	1.011488786e0	1.477989094e0
6.497278625e0	-7.346006128e-1	8.164174855e-1	1.057971227e0	1.524952028e0
6.507259625e0	-9.696768084e-1	5.766372049e-1	1.105372265e0	1.579440225e0
6.517241625e0	-1.028282281e0	3.025536489e-1	1.189233617e0	1.600993365e0
6.527222625e0	-8.544422212e-1	-1.145516324e-1	1.440622959e0	1.678865122e0
6.537203625e0	-7.186983790e-1	-5.608666795e-1	1.733386030e0	1.958500937e0
6.547185625e0	-8.260979895e-1	-7.218042737e-1	1.916116197e0	2.207926760e0
6.557166625e0	-1.142510124e0	-8.604955512e-1	2.029729936e0	2.483059724e0
6.567147625e0	-1.506740058e0	-1.052566645e0	1.969619390e0	2.693986393e0
6.577129625e0	-1.759157341e0	-1.385141069e0	1.783635832e0	2.862622419e0
6.587110625e0	-1.658730973e0	-1.483666068e0	1.172867260e0	2.515605504e0
6.597091625e0	-1.389995719e0	-1.789334528e0	4.917145836e-1	2.318531731e0
6.607073625e0	-1.037754478e0	-2.196888383e0	-5.540295303e-2	2.430292660e0
6.617054625e0	-6.910107896e-1	-2.471939068e0	-5.833854765e-1	2.632169691e0
6.627035625e0	-4.167792991e-1	-2.633820988e0	-9.404591489e-1	2.827575179e0
6.637017625e0	-1.660094690e-1	-2.851633279e0	-1.054356989e0	3.044838282e0
6.646998625e0	2.152091110e-1	-3.042284085e0	-1.031095742e0	3.219466702e0
6.656979625e0	5.333195695e-1	-2.741246034e0	-1.022135396e0	2.973822515e0
6.666961625e0	7.616089019e-1	-1.824021381e0	-1.077471179e0	2.251232165e0
6.676942625e0	8.193934259e-1	-7.372648966e-1	-9.452469222e-1	1.452052636e0
6.686923625e0	6.792497000e-1	-1.571643859e-1	-4.453906754e-1	8.273171417e-1
6.696905625e0	6.221235725e-1	-1.891200042e-1	1.576724724e-1	6.690775172e-1
6.706886625e0	8.056834593e-1	-4.614523190e-1	6.698090049e-1	1.144861643e0
6.716867625e0	1.104871743e0	-6.748014307e-1	9.017646146e-1	1.577744580e0
6.726848625e0	1.330971001e0	-6.966033590e-1	8.310250727e-1	1.716782664e0
6.736830625e0	1.439138936e0	-6.324851310e-1	6.723104437e-1	1.709725022e0
6.746811625e0	1.476414059e0	-5.696439350e-1	3.896338928e-1	1.629756809e0
6.756792625e0	1.534636831e0	-5.527150762e-1	1.043282875e-1	1.634468890e0
6.766774625e0	1.535841358e0	-6.209123218e-1	-7.127178468e-2	1.658137646e0
6.776755625e0	1.534572804e0	-5.583786893e-1	-2.465653165e-1	1.651512915e0
6.786736625e0	1.514314541e0	-3.417352563e-1	-4.666060549e-1	1.621003617e0
6.796718625e0	1.519539613e0	-1.275195873e-1	-6.541034567e-1	1.659250798e0
6.806699625e0	1.461318009e0	1.294515073e-1	-8.630917150e-1	1.702097332e0
6.816680625e0	1.319212543e0	4.429470509e-1	-1.043042773e0	1.739098056e0
6.826662625e0	1.129261065e0	7.867609924e-1	-1.128061289e0	1.779535243e0
6.836643625e0	1.014284924e0	1.107300092e0	-1.135465033e0	1.882596145e0
6.846624625e0	9.877145916e-1	1.331951872e0	-1.015894151e0	1.944663680e0
6.856606625e0	1.005265009e0	1.505743400e0	-7.813645971e-1	1.971890352e0
6.866587625e0	1.059154118e0	1.641523349e0	-5.742502984e-1	2.036214565e0
6.876568625e0	1.123077926e0	1.749648306e0	-3.783837768e-1	2.113231532e0
6.886550625e0	1.157948966e0	1.793581361e0	-2.630686442e-1	2.151042775e0
6.896531625e0	1.157102728e0	1.802639868e0	-2.288507382e-1	2.154244618e0
6.906512625e0	1.140838552e0	1.658402506e0	-1.433456612e-1	2.018008784e0
6.916494625e0	1.246546563e0	1.516062566e0	-1.255801389e-1	1.966747164e0
6.926475625e0	1.283419835e0	1.356878552e0	-1.786067835e-1	1.876215942e0
6.936456625e0	1.149209133e0	1.024667240e0	-2.072113625e-1	1.553564010e0
6.946438625e0	9.897763199e-1	7.538417530e-1	-2.866632557e-1	1.276757759e0
6.956419625e0	8.315357539e-1	5.606661201e-1	-3.871464141e-1	1.075025839e0
6.966400625e0	7.094502765e-1	3.882124346e-1	-4.686613512e-1	9.347042588e-1
6.976382625e0	5.056984922e-1	2.661512232e-1	-5.850255474e-1	8.178155842e-1
6.986363625e0	2.141819014e-1	2.040339124e-1	-6.839529810e-1	7.451814574e-1
6.996344625e0	-7.432001129e-2	1.409301764e-1	-6.550286324e-1	6.741270563e-1
7.006326625e0	-2.655296642e-1	9.571541190e-2	-5.600941893e-1	6.271945021e-1
7.016307625e0	-3.645565005e-1	6.348848283e-2	-3.617918638e-1	5.175186781e-1
7.026288625e0	-4.580217576e-1	-2.337833762e-2	-1.275903386e-1	4.760354731e-1
7.036270625e0	-6.136661598e-1	-1.757585317e-1	2.826785244e-2	6.389650136e-1
7.046251625e0	-7.426194844e-1	-4.616177952e-1	6.343761206e-2	8.766977917e-1
7.056232625e0	-7.501838811e-1	-7.800635916e-1	-2.704695381e-2	1.082592536e0
7.066213625e0	-6.623209874e-1	-1.026726045e0	-1.755405767e-1	1.234362166e0
7.076195625e0	-5.078906134e-1	-1.145673614e0	-2.705727415e-1	1.282080541e0
7.086176625e0	-3.469866407e-1	-1.189714258e0	-2.853786224e-1	1.271715653e0
7.096157625e0	-2.784777385e-1	-1.369788619e0	-2.007417838e-1	1.412150125e0
7.106139625e0	-2.246921253e-1	-1.781380561e0	-3.514995217e-2	1.795839295e0
7.116120625e0	-1.301239371e-1	-2.378943781e0	1.507844889e-1	2.387266578e0
7.126101625e0	-8.144294322e-3	-2.942046436e0	2.486206859e-1	2.952543955e0
7.136083625e0	1.338532913e-1	-3.243099105e0	1.171809791e-1	3.247974736e0
7.146064625e0	2.771083206e-1	-3.200065352e0	-2.060406768e-1	3.218642577e0
7.156045625e0	3.712511238e-1	-2.810948353e0	-6.422885728e-1	2.907196700e0
7.166027625e0	4.135305861e-1	-2.066611834e0	-1.231291616e0	2.440895544e0
7.176008625e0	3.560255590e-1	-1.442814496e0	-1.624812591e0	2.201927297e0
7.185989625e0	2.075691390e-1	-9.533025581e-1	-1.640701669e0	1.908866858e0
7.195971625e0	7.444572642e-2	-3.932603359e-1	-1.436598905e0	1.491312265e0
7.205952625e0	9.596070260e-2	3.577045870e-1	-1.071726363e0	1.133912882e0
7.215933625e0	1.844474941e-1	1.098854374e0	-5.936227816e-1	1.262493493e0
7.225915625e0	5.481779292e-2	1.609516860e0	-6.147835627e-3	1.610461831e0
7.235896625e0	-1.912517528e-1	1.709566228e0	5.923480155e-1	1.819359803e0
7.245877625e0	-3.797991684e-1	1.410672351e0	1.021428468e0	1.782571178e0
7.255859625e0	-5.559453705e-1	8.655814594e-1	1.300638278e0	1.658302278e0
7.265840625e0	-6.598752433e-1	3.432537782e-1	1.295055941e0	1.493461879e0
7.275821625e0	-7.159876098e-1	-3.151356876e-2	9.735905691e-1	1.208929261e0
7.285803625e0	-7.144402903e-1	-3.744457501e-1	5.116810709e-1	9.552235689e-1
7.295784625e0	-6.754054481e-1	-7.434477425e-1	1.211274111e-1	1.011710885e0
7.305765625e0	-6.156083125e-1	-9.597520369e-1	-2.819398749e-1	1.174558496e0
7.315747625e0	-6.093248945e-1	-9.129123312e-1	-7.068693155e-1	1.305507557e0
7.325728625e0	-6.235153560e-1	-6.240142697e-1	-1.074879108e0	1.390514403e0
7.335709625e0	-5.220857526e-1	-1.362453872e-1	-1.402964551e0	1.503145326e0
7.345691625e0	-3.584015751e-1	3.415089691e-1	-1.473917005e0	1.554834847e0
7.355672625e0	-1.603169122e-1	7.822463572e-1	-1.198762166e0	1.440361624e0
7.365653625e0	1.547591338e-1	1.175682110e0	-7.104057115e-1	1.382336821e0
7.375634625e0	4.303556567e-1	1.494731923e0	-7.822054267e-2	1.557417082e0
7.385616625e0	6.360732749e-1	1.765318844e0	5.383706868e-1	1.952122647e0
7.395597625e0	8.276608041e-1	2.019663370e0	1.073006099e0	2.432160484e0
7.405578625e0	9.110023382e-1	2.031121573e0	1.626246913e0	2.756820475e0
7.415560625e0	8.837554827e-1	1.940298527e0	2.040705160e0	2.951314906e0
7.425541625e0	8.555204478e-1	2.001033556e0	2.131548672e0	3.046235426e0
7.435522625e0	9.020328556e-1	2.006651561e0	2.144257010e0	3.072157529e0
7.445504625e0	9.840513110e-1	1.757016383e0	2.178806453e0	2.966927891e0
7.455485625e0	9.886878607e-1	1.495398506e0	2.042019029e0	2.717271075e0
7.465466625e0	8.446896502e-1	1.288711712e0	1.778530043e0	2.353178191e0
7.475448625e0	5.686708121e-1	1.101200861e0	1.529695934e0	1.968755820e0
7.485430125e0	3.070704769e-1	9.664576238e-1	1.282762170e0	1.635179318e0
7.495411125e0	1.489996263e-1	8.673900032e-1	1.090411579e0	1.401272178e0
7.505393125e0	1.038863111e-1	6.977049744e-1	9.398814440e-1	1.175143279e0
7.515374125e0	8.562998816e-2	5.075389034e-1	8.017140770e-1	9.527191058e-1
7.525355125e0	6.963741481e-2	3.528759563e-1	6.318010068e-1	7.270098502e-1
7.535337125e0	4.383949935e-2	2.514647716e-1	4.128274949e-1	4.853689047e-1
7.545318125e0	-9.136420637e-2	2.135473323e-1	1.959495886e-1	3.038850483e-1
7.555299125e0	-3.264623290e-1	1.420943570e-1	-4.776005745e-3	3.560776163e-1
7.565281125e0	-6.281450352e-1	2.419694781e-1	-1.716678196e-1	6.946835639e-1
7.575262125e0	-9.272729467e-1	2.889384073e-1	-1.021512229e-2	9.713006072e-1
7.585243125e0	-1.117090962e0	2.494299406e-1	5.370421994e-1	1.264326634e0
7.595225125e0	-1.362776054e0	1.091897357e-1	1.156987392e0	1.791005526e0
7.605206125e0	-1.752402783e0	-1.681074500e-2	1.551932895e0	2.340874586e0
7.615187125e0	-2.063614551e0	-6.169981956e-2	1.782879202e0	2.727814167e0
7.625169125e0	-2.231814387e0	-1.322336125e-1	2.000926552e0	3.000364686e0
7.635150125e0	-2.290665443e0	-3.039967418e-1	2.255737685e0	3.229228189e0
7.645131125e0	-2.115136853e0	-3.779879934e-1	2.372096692e0	3.200550194e0
7.655113125e0	-1.828485730e0	-4.828841186e-1	2.441927065e0	3.088615374e0
7.665094125e0	-1.572109151e0	-7.520232689e-1	2.439912114e0	2.998372443e0
7.675075125e0	-1.267137533e0	-1.137171178e0	2.227589189e0	2.803738470e0
7.685056125e0	-9.985847117e-1	-1.658757432e0	1.907966348e0	2.718268425e0
7.695038125e0	-7.518691948e-1	-2.122449235e0	1.495683850e0	2.703177430e0
7.705019125e0	-4.958085117e-1	-2.411858343e0	1.121266751e0	2.705573114e0
7.715000125e0	-2.951412798e-1	-2.576977281e0	8.135394859e-1	2.718412547e0
7.724982125e0	-1.335644388e-1	-2.628033414e0	6.018772960e-1	2.699380552e0
7.734963125e0	1.083217165e-1	-2.582330407e0	4.930606127e-1	2.631211260e0
7.744944125e0	3.617083217e-1	-2.448689370e0	4.290622526e-1	2.512171761e0
7.754926125e0	5.735737024e-1	-2.173078521e0	3.802298158e-1	2.279436721e0
7.764907125e0	6.469792092e-1	-1.699832368e0	3.528075439e-1	1.852696775e0
7.774888125e0	5.915324020e-1	-1.024349152e0	3.076834112e-1	1.222240095e0
7.784870125e0	5.005446102e-1	-2.719984388e-1	3.643166184e-1	6.762060751e-1
7.794851125e0	4.715665403e-1	3.897379732e-1	5.660701168e-1	8.334902920e-1
7.804832125e0	5.863055760e-1	8.995760018e-1	9.026779497e-1	1.402789611e0
7.814814125e0	7.018021184e-1	1.180649904e0	1.350637819e0	1.926313299e0
7.824795125e0	8.183055514e-1	1.168681823e0	1.866908369e0	2.349635724e0
7.834776125e0	9.935056740e-1	9.275332940e-1	2.261069176e0	2.638144301e0
7.844758125e0	1.191153988e0	6.792950159e-1	2.400294889e0	2.764363416e0
7.854739125e0	1.403490801e0	4.779964310e-1	2.339777377e0	2.769986496e0
7.864720125e0	1.603971507e0	1.978633457e-1	2.094853885e0	2.645805605e0
7.874702125e0	1.747843271e0	-1.645295388e-1	1.787850505e0	2.505680646e0
7.884683125e0	1.830930013e0	-5.695556420e-1	1.424745430e0	2.388848652e0
7.894664125e0	1.758739703e0	-1.018345816e0	1.065553311e0	2.294688956e0
7.904646125e0	1.691954707e0	-1.260383706e0	5.333075827e-1	2.176165158e0
7.914627125e0	1.658423848e0	-1.318728393e0	-6.950009661e-3	2.118835185e0
7.924608125e0	1.618650357e0	-1.317761849e0	-3.892485613e-1	2.123214476e0
7.934590125e0	1.624460881e0	-1.162742221e0	-8.148059928e-1	2.157487296e0
7.944571125e0	1.547042869e0	-9.739917612e-1	-1.151835995e0	2.160723894e0
7.954552125e0	1.410722930e0	-7.049572760e-1	-1.318940063e0	2.055895628e0
7.964533125e0	1.264394896e0	-3.501996857e-1	-1.277345309e0	1.831104943e0
7.974515125e0	1.112663743e0	8.077577591e-2	-1.078115469e0	1.551411711e0
7.984496125e0	1.017227097e0	4.874817842e-1	-7.074528676e-1	1.331495031e0
7.994477125e0	1.004035486e0	8.198468775e-1	-2.490399496e-1	1.319945854e0
8.004459125e0	1.013516308e0	1.151873417e0	1.782588011e-1	1.544604763e0
8.014440125e0	9.649057728e-1	1.384261063e0	4.806727016e-1	1.754499383e0
8.024421125e0	1.028490735e0	1.500145276e0	6.641986746e-1	1.936333886e0
8.034403125e0	1.082552629e0	1.609960663e0	7.867381883e-1	2.093525856e0
8.044384125e0	1.019691845e0	1.597524220e0	9.580130750e-1	2.123592274e0
8.054365125e0	9.344084501e-1	1.607826430e0	9.525932908e-1	2.089415937e0
8.064347125e0	8.936986730e-1	1.628469440e0	9.156687087e-1	2.071004398e0
8.074328125e0	8.635279173e-1	1.601831864e0	9.159137070e-1	2.037263779e0
8.084309125e0	8.438112523e-1	1.507325072e0	9.081673157e-1	1.951618348e0
8.094291125e0	7.978758185e-1	1.398763327e0	8.565235376e-1	1.823945514e0
8.104272125e0	7.112857175e-1	1.337849958e0	7.369701970e-1	1.684902060e0
8.114253125e0	5.910997081e-1	1.277383316e0	6.749148667e-1	1.560966713e0
8.124235125e0	4.079558507e-1	1.113917971e0	6.691974592e-1	1.362008246e0
8.134216125e0	2.725208876e-1	1.009327655e0	5.743544519e-1	1.192850781e0
8.144197125e0	6.414161682e-2	8.174840176e-1	4.204077888e-1	9.214862858e-1
8.154179125e0	-2.021765444e-1	4.974290675e-1	2.397738121e-1	5.880497541e-1
8.164160125e0	-3.551832676e-1	2.703284740e-1	-4.405116856e-2	4.485232914e-1
8.174141125e0	-3.616622749e-1	6.656470299e-2	-2.745314527e-1	4.589095546e-1
8.184123125e0	-2.828043857e-1	-1.968032455e-1	-4.590678245e-1	5.739800567e-1
8.194104125e0	-1.471786572e-1	-4.572809154e-1	-6.265081072e-1	7.894807161e-1
8.204085125e0	-6.843288839e-3	-7.035814261e-1	-7.287683076e-1	1.013003899e0
8.214067125e0	-1.371902972e-3	-8.365833628e-1	-7.791900176e-1	1.143245682e0
8.224048125e0	-1.336313894e-1	-8.517101097e-1	-7.605204427e-1	1.149634204e0
8.234029125e0	-2.715347546e-1	-8.447741425e-1	-6.483252382e-1	1.098954089e0
8.244011125e0	-3.338147642e-1	-8.524369186e-1	-4.076539151e-1	1.002129089e0
8.253992125e0	-3.889953768e-1	-9.064470649e-1	-9.407621808e-3	9.864340768e-1
8.263973125e0	-4.240039726e-1	-1.066252053e0	4.750833116e-1	1.241924701e0
8.273955125e0	-4.228162569e-1	-1.480554764e0	1.030034984e0	1.852508587e0
8.283936125e0	-3.597932124e-1	-2.022743098e0	1.450219994e0	2.514772123e0
8.293917125e0	-2.862817249e-1	-2.428231716e0	1.576681820e0	2.909328454e0
8.303899125e0	-3.423170543e-1	-2.510932395e0	1.342364593e0	2.867735197e0
8.313880125e0	-4.972358170e-1	-2.232206150e0	7.140958893e-1	2.395813159e0
8.323861125e0	-6.788501890e-1	-1.745223718e0	-6.303009767e-2	1.873663844e0
8.333842125e0	-8.633652185e-1	-1.261092389e0	-7.387606144e-1	1.697504273e0
8.343824125e0	-9.436534828e-1	-8.379609668e-1	-1.227829918e0	1.760746087e0
8.353805125e0	-9.461645696e-1	-4.443661702e-1	-1.482017738e0	1.813578027e0
8.363786125e0	-8.588977996e-1	-2.708313346e-2	-1.506003016e0	1.733921570e0
8.373768125e0	-7.363068303e-1	4.769445169e-1	-1.285341961e0	1.556190149e0
8.383749125e0	-6.745842066e-1	1.053189958e0	-8.821437708e-1	1.530506639e0
8.393730125e0	-6.159176302e-1	1.487532247e0	-3.870132438e-1	1.655864114e0
8.403712125e0	-5.766322348e-1	1.652151833e0	1.690354762e-1	1.758033960e0
8.413693125e0	-6.112454125e-1	1.440020111e0	7.703197914e-1	1.743752120e0
8.423674125e0	-6.363703135e-1	8.620251828e-1	1.358232182e0	1.729985333e0
8.433656125e0	-5.827387744e-1	4.121211147e-1	1.638029637e0	1.786776255e0
8.443637125e0	-5.698950729e-1	3.863723159e-2	1.591371049e0	1.690779420e0
8.453618125e0	-5.867881174e-1	-3.881071848e-1	1.318692725e0	1.494623025e0
8.463600125e0	-6.129872981e-1	-5.853273368e-1	8.306338940e-1	1.186724140e0
8.473581125e0	-6.166429773e-1	-6.131811333e-1	2.317234752e-1	8.999641285e-1
8.483562125e0	-4.867213538e-1	-5.088586199e-1	-3.380029786e-1	7.810766831e-1
8.493543500e0	-2.937388252e-1	-2.005787927e-1	-8.312739448e-1	9.041740545e-1
8.503524500e0	-1.502067840e-1	2.310655904e-1	-1.156445282e0	1.188830970e0
8.513505500e0	-1.580633953e-1	6.363980877e-1	-1.286982690e0	1.444406801e0
8.523487500e0	-2.188130423e-1	1.012955267e0	-1.148252163e0	1.546751613e0
8.533468500e0	-1.964914428e-1	1.324748687e0	-7.780110727e-1	1.548828331e0
8.543449500e0	-2.484160334e-2	1.525922141e0	-2.420425683e-1	1.545199046e0
8.553431500e0	1.516487074e-1	1.660839626e0	3.328352459e-1	1.700636614e0
8.563412500e0	1.740431048e-1	1.714228213e0	8.285411024e-1	1.911896892e0
8.573393500e0	7.772733003e-2	1.737683149e0	1.221894409e0	2.125702287e0
8.583374500e0	2.919134706e-2	1.703285733e0	1.524904141e0	2.286343601e0
8.593356500e0	-1.909145147e-2	1.564910206e0	1.766057932e0	2.359718003e0
8.603337500e0	-1.298336229e-1	1.480398644e0	1.842855847e0	2.367394050e0
8.613318500e0	-1.998128074e-1	1.398341158e0	1.783530582e0	2.275140543e0
8.623300500e0	-2.770584731e-1	1.225006882e0	1.718772084e0	2.128750980e0
8.633281500e0	-3.204154310e-1	1.006526254e0	1.531566458e0	1.860499117e0
8.643262500e0	-2.859279683e-1	9.493796611e-1	1.128479292e0	1.502179102e0
8.653244500e0	-2.116754924e-1	8.271763623e-1	7.121932054e-1	1.111866184e0
8.663225500e0	-2.201238419e-1	6.540900081e-1	3.738645369e-1	7.848967680e-1
8.673206500e0	-2.900265741e-1	7.055367351e-1	2.986154761e-3	7.628279068e-1
8.683188500e0	-3.876446700e-1	8.432491887e-1	-2.041707555e-1	9.502753716e-1
8.693169500e0	-4.958421332e-1	8.570749301e-1	-2.202178359e-2	9.904149715e-1
8.703150500e0	-5.549928591e-1	7.914089441e-1	4.663078469e-1	1.073213957e0
8.713132500e0	-6.151639241e-1	8.020274878e-1	9.580756402e-1	1.392689368e0
8.723113500e0	-8.205624305e-1	7.909949613e-1	1.453107934e0	1.846758890e0
8.733094500e0	-1.109486951e0	6.708452046e-1	1.852521880e0	2.261157203e0
8.743076500e0	-1.343402182e0	6.382727051e-1	2.072066116e0	2.550603744e0
8.753057500e0	-1.471370835e0	5.445202035e-1	2.195137142e0	2.698158902e0
8.763038500e0	-1.408018008e0	3.538512719e-1	2.208817288e0	2.643217593e0
8.773020500e0	-1.331975699e0	1.805742985e-1	2.146526899e0	2.532655537e0
8.783001500e0	-1.359218023e0	-1.094359034e-1	2.082635543e0	2.489341410e0
8.792982500e0	-1.367306038e0	-5.704835951e-1	2.000955788e0	2.489739223e0
8.802964500e0	-1.304808073e0	-1.132426747e0	1.811655689e0	2.503399845e0
8.812945500e0	-1.085762458e0	-1.896439147e0	1.627318708e0	2.724615153e0
8.822926500e0	-6.602993126e-1	-2.718223207e0	1.288319364e0	3.079691440e0
8.832908500e0	-1.667194672e-1	-3.331869194e0	9.184970069e-1	3.460171160e0
8.842889500e0	3.707653664e-1	-3.634847351e0	5.168272054e-1	3.690080295e0
8.852870500e0	7.330741972e-1	-3.660857520e0	-1.368950129e-2	3.733559021e0
8.862852500e0	1.005078922e0	-3.091434025e0	-8.403162253e-1	3.357570450e0
8.872833500e0	1.215594180e0	-2.240543695e0	-1.521957729e0	2.968848361e0
8.882814500e0	1.336464606e0	-1.506573704e0	-1.795930188e0	2.698382332e0
8.892795500e0	1.374263786e0	-8.584297299e-1	-1.611375690e0	2.285177054e0
8.902777500e0	1.281561006e0	-2.928753376e-1	-9.005448854e-1	1.593472832e0
8.912758500e0	1.203065498e0	2.876052421e-1	6.430533886e-2	1.238635759e0
8.922739500e0	1.098982574e0	7.859733725e-1	1.001388305e0	1.681753662e0
8.932721500e0	9.419827871e-1	9.867585719e-1	1.778459877e0	2.241415531e0
8.942702500e0	7.930435333e-1	7.490482056e-1	2.452921000e0	2.684550743e0
8.952683500e0	7.726218402e-1	5.690258843e-1	2.717736719e0	2.882156803e0
8.962665500e0	8.934985520e-1	3.315055525e-1	2.692199589e0	2.855901648e0
8.972646500e0	1.129223496e0	-8.383679330e-2	2.518704515e0	2.761529783e0
8.982627500e0	1.360617992e0	-4.479189384e-1	2.075721796e0	2.522009847e0
8.992609500e0	1.581005251e0	-6.968045032e-1	1.398141768e0	2.222591848e0
9.002590500e0	1.817686215e0	-9.224391997e-1	6.051564145e-1	2.126285856e0
9.012571500e0	2.022960615e0	-1.113612746e0	-1.462926579e-1	2.313850587e0
9.022553500e0	2.163983323e0	-1.068991474e0	-8.074724150e-1	2.545108700e0
9.032534500e0	2.142861865e0	-6.880313408e-1	-1.508884524e0	2.709608201e0
9.042515500e0	1.964516963e0	-4.756768405e-1	-2.016193632e0	2.854931193e0
9.052497500e0	1.695718998e0	-3.221821672e-1	-2.189740162e0	2.788229948e0
9.062478500e0	1.487061692e0	2.692818224e-2	-2.289030561e0	2.729787265e0
9.072459500e0	1.389661697e0	3.470170462e-1	-2.209551698e0	2.633191822e0
9.082441500e0	1.283523477e0	4.017651111e-1	-1.807234025e0	2.252763313e0
9.092422500e0	1.094391486e0	4.789401716e-1	-1.248385220e0	1.727872122e0
9.102403500e0	8.707895744e-1	6.958245099e-1	-7.176170826e-1	1.325677377e0
9.112385500e0	6.730341098e-1	1.014281416e0	-1.964406999e-1	1.233016890e0
9.122366500e0	5.072844033e-1	1.149253864e0	4.160995603e-1	1.323352090e0
9.132347500e0	4.380872838e-1	1.016977567e0	1.037586079e0	1.517481041e0
9.142328500e0	4.594617806e-1	1.027730597e0	1.344461989e0	1.753543084e0
9.152310500e0	4.985397461e-1	1.125312440e0	1.388161740e0	1.855225858e0
9.162291500e0	4.270106108e-1	1.024615785e0	1.256447361e0	1.676554663e0
9.172272500e0	2.681734827e-1	8.281575251e-1	9.986997557e-1	1.324825689e0
9.182254500e0	6.102344289e-2	7.454878360e-1	5.361627781e-1	9.202969623e-1
9.192235500e0	-1.804877597e-1	6.306315637e-1	1.397051847e-1	6.706635066e-1
9.202216500e0	-4.970086527e-1	4.183425522e-1	-1.803409763e-1	6.742039451e-1
9.212198500e0	-8.082265596e-1	1.479608685e-1	-5.024851549e-1	9.631271573e-1
9.222179500e0	-1.032957423e0	-1.999689281e-2	-6.659779823e-1	1.229197944e0
9.232160500e0	-1.202558252e0	-9.540200114e-2	-7.250535715e-1	1.407462458e0
9.242142500e0	-1.451123535e0	-1.234060711e-1	-6.570796895e-1	1.597730356e0
9.252123500e0	-1.754537456e0	-4.569072783e-2	-4.935061705e-1	1.823194358e0
9.262104500e0	-2.059553075e0	-7.062384009e-2	-1.494185976e-1	2.066173398e0
9.272086500e0	-2.280983331e0	-1.251812857e-1	1.156614339e-1	2.287341880e0
9.282067500e0	-2.313642369e0	-2.196518254e-1	2.911913212e-1	2.342216967e0
9.292048500e0	-2.218832837e0	-4.032713538e-1	3.381783950e-1	2.280397240e0
9.302030500e0	-2.077977944e0	-5.324620754e-1	3.304647481e-1	2.170418196e0
9.312011500e0	-1.958589933e0	-6.858058906e-1	2.288997817e-1	2.087773780e0
9.321992500e0	-1.835146878e0	-8.603827000e-1	1.232382560e-1	2.030568916e0
9.331974500e0	-1.637997185e0	-9.524424326e-1	5.854116281e-2	1.895681522e0
9.341955500e0	-1.519319173e0	-9.994294882e-1	1.058790330e-1	1.821647721e0
9.351936500e0	-1.461173729e0	-1.184466966e0	3.067297304e-1	1.905800039e0
9.361918500e0	-1.479774161e0	-1.308846014e0	4.933658373e-1	2.036226732e0
9.371899500e0	-1.584319453e0	-1.400588243e0	7.737234557e-1	2.251746776e0
9.381880500e0	-1.683489839e0	-1.454871454e0	1.137518502e0	2.498947244e0
9.391862500e0	-1.754209135e0	-1.604756057e0	1.476975099e0	2.798918922e0
9.401843500e0	-1.814174085e0	-1.877683033e0	1.634583288e0	3.080386942e0
9.411824500e0	-1.795029716e0	-1.859179519e0	1.483154436e0	2.979668983e0
9.421805500e0	-1.720937747e0	-1.564644742e0	1.123014484e0	2.582808825e0
9.431787500e0	-1.737741913e0	-1.308291698e0	7.147648108e-1	2.289598843e0
9.441768500e0	-1.738996141e0	-7.197957551e-1	6.845859786e-2	1.883321557e0
9.451749500e0	-1.720623313e0	2.349411249e-3	-5.543908882e-1	1.807733211e0
9.461731500e0	-1.609283556e0	4.623802722e-1	-8.256549168e-1	1.866894512e0
9.471712500e0	-1.519055610e0	9.465022463e-1	-9.614582545e-1	2.031698408e0
9.481693500e0	-1.437393834e0	1.408165650e0	-1.003548267e0	2.248586368e0
9.491675750e0	-1.412103165e0	1.722665745e0	-7.263294339e-1	2.342897152e0
9.501656750e0	-1.461325319e0	1.746370942e0	-2.107313132e-1	2.286851731e0
9.511637750e0	-1.509785872e0	1.482553927e0	3.028892791e-1	2.137559693e0
9.521619750e0	-1.478643894e0	1.179667572e0	7.178632504e-1	2.023198209e0
9.531600750e0	-1.509604609e0	7.513777363e-1	1.024319258e0	1.972993796e0
9.541581750e0	-1.548607730e0	3.140258861e-1	1.221980363e0	1.997506988e0
9.551563750e0	-1.662878842e0	-3.390800357e-2	1.221016742e0	2.063297768e0
9.561544750e0	-1.758863664e0	-8.949105084e-2	9.428629392e-1	1.997648758e0
9.571525750e0	-1.691167818e0	9.519442499e-2	5.251566007e-1	1.773386597e0
9.581507750e0	-1.413682790e0	2.638474202e-1	1.823641312e-1	1.449610696e0
9.591488750e0	-1.155246091e0	3.244801229e-1	-7.527884502e-2	1.202309355e0
9.601469750e0	-9.996277088e-1	6.581070453e-1	-5.503177543e-1	1.317273726e0
9.611451750e0	-9.480022033e-1	1.087826525e0	-1.023959727e0	1.769341191e0
9.621432750e0	-9.775768353e-1	1.271454239e0	-1.216730148e0	2.013128065e0
9.631413750e0	-9.462864840e-1	1.316640353e0	-1.179855852e0	2.005258028e0
9.641394750e0	-7.255652028e-1	1.356633554e0	-9.304890615e-1	1.797973680e0
9.651376750e0	-5.260856867e-1	1.371842161e0	-5.218558109e-1	1.559182655e0
9.661357750e0	-2.867470171e-1	1.370216635e0	-1.306560520e-1	1.405983102e0
9.671338750e0	-6.476580709e-2	1.368173618e0	2.163352847e-1	1.386684757e0
9.681320750e0	6.589124992e-2	1.215558951e0	5.457703382e-1	1.334087884e0
9.691301750e0	1.168915419e-1	1.082392123e0	6.914987397e-1	1.289731308e0
9.701282750e0	1.124068737e-1	1.071140326e0	6.104323572e-1	1.237984073e0
9.711264750e0	6.211994201e-2	9.574780548e-1	5.047281468e-1	1.084146491e0
9.721245750e0	4.493716791e-2	8.528982639e-1	2.919035304e-1	9.025865436e-1
9.731226750e0	5.481735438e-2	8.130325323e-1	6.263361990e-2	8.172819656e-1
9.741208750e0	8.501544580e-2	7.088217008e-1	-1.074419846e-1	7.219415555e-1
9.751189750e0	1.442139727e-1	5.835608929e-1	-2.104354441e-1	6.368862236e-1
9.761170750e0	1.429875192e-1	5.939502257e-1	-3.707315987e-1	7.146077383e-1
9.771152750e0	7.902424246e-2	6.042354780e-1	-4.215088195e-1	7.409554836e-1
9.781133750e0	-3.080532476e-2	5.945565820e-1	-4.202908079e-1	7.287598098e-1
9.791114750e0	-1.507782032e-1	6.763269693e-1	-3.961710799e-1	7.981877977e-1
9.801096750e0	-2.456029379e-1	7.622974116e-1	-2.530926730e-1	8.399250252e-1
9.811077750e0	-3.142331699e-1	7.374900144e-1	8.887164798e-3	8.016938244e-1
9.821058750e0	-3.972555922e-1	6.767526466e-1	2.571634497e-1	8.257960947e-1
9.831040750e0	-4.794341151e-1	5.677383274e-1	4.415062970e-1	8.643562283e-1
9.841021750e0	-5.980134559e-1	4.398076808e-1	5.356634259e-1	9.154158593e-1
9.851002750e0	-7.807424533e-1	2.404199660e-1	5.925544953e-1	1.009198379e0
9.860984750e0	-9.192027658e-1	-7.360065758e-2	6.693857396e-1	1.139485871e0
9.870965750e0	-1.013517185e0	-3.995145178e-1	6.796207058e-1	1.284022289e0
9.880946750e0	-1.075077987e0	-7.152442825e-1	6.511693239e-1	1.446163390e0
9.890928750e0	-1.115933214e0	-1.103043904e0	6.700751263e-1	1.706169237e0
9.900909750e0	-1.171465244e0	-1.487451555e0	6.539362264e-1	2.003116456e0
9.910890750e0	-1.195693767e0	-1.770429896e0	5.342665261e-1	2.202168549e0
9.920871750e0	-1.249157783e0	-1.926592069e0	3.305588518e-1	2.319789068e0
9.930853750e0	-1.329656839e0	-1.961191213e0	3.293389399e-2	2.369671481e0
9.940834750e0	-1.280213807e0	-1.869929625e0	-3.782897097e-1	2.297539401e0
9.950815750e0	-1.062287495e0	-1.639628851e0	-7.821136254e-1	2.104409469e0
9.960797750e0	-6.337823358e-1	-1.218769657e0	-1.160540745e0	1.798314307e0
9.970778750e0	-1.606067879e-1	-7.220960498e-1	-1.339243934e0	1.529964562e0
9.980759750e0	2.865349093e-1	-2.391353327e-1	-1.265081944e0	1.318984566e0
9.990741750e0	7.196120064e-1	1.252993995e-1	-1.078205516e0	1.302331953e0
1.000072275e1	1.037830492e0	1.590138602e-1	-6.902771833e-1	1.256527011e0
1.001070375e1	1.027482090e0	1.490724242e-1	-3.723313969e-1	1.102983546e0
1.002068575e1	8.704459043e-1	2.035871851e-1	-1.783617852e-1	9.115573162e-1
1.003066675e1	6.101188003e-1	1.346251237e-1	1.021081728e-1	6.330836859e-1
1.004064775e1	2.796632615e-1	-5.532050729e-2	4.542497188e-1	5.362972174e-1
1.005062975e1	1.283592474e-1	-1.699499077e-1	6.985504818e-1	7.302957231e-1
1.006061075e1	-4.952884018e-2	-4.851195091e-1	9.038766289e-1	1.027028239e0
1.007059175e1	-3.238706969e-1	-7.994687462e-1	8.267267114e-1	1.194788500e0
1.008057375e1	-6.395430127e-1	-9.160932165e-1	5.181468489e-1	1.231551137e0
1.009055475e1	-9.843796322e-1	-9.099349290e-1	3.004584454e-2	1.340853306e0
1.010053575e1	-1.195832492e0	-7.814721859e-1	-6.161298841e-1	1.555741032e0
1.011051775e1	-1.201483241e0	-6.479130095e-1	-1.309208542e0	1.891396376e0
1.012049875e1	-1.175673046e0	-4.766381228e-1	-2.051563293e0	2.412115867e0
1.013047975e1	-1.116803864e0	-2.585241151e-1	-2.700178699e0	2.933436653e0
1.014046175e1	-9.460020170e-1	-4.349509835e-2	-3.163969905e0	3.302653054e0
1.015044275e1	-7.300177114e-1	1.144042826e-1	-3.411366184e0	3.490477537e0
1.016042375e1	-5.895098501e-1	1.947415173e-1	-3.431550187e0	3.487260072e0
1.017040475e1	-4.871177951e-1	3.132008439e-1	-3.228977494e0	3.280499074e0
1.018038675e1	-2.623395695e-1	5.088165200e-1	-2.847940763e0	2.904906692e0
1.019036775e1	1.285890430e-2	6.428604305e-1	-2.324191039e0	2.411493079e0
1.020034875e1	1.685035989e-1	8.486970395e-1	-1.913736965e0	2.100254580e0
1.021033075e1	2.199099800e-1	8.527257711e-1	-1.512989854e0	1.750611304e0
1.022031175e1	2.304541178e-1	8.962547833e-1	-1.333202737e0	1.622902115e0
1.023029275e1	1.641719815e-1	9.148997998e-1	-1.291832955e0	1.591485617e0
1.024027475e1	9.021785975e-2	9.209657013e-1	-1.328435941e0	1.618968540e0
1.025025575e1	6.164821789e-2	8.167700726e-1	-1.415383014e0	1.635305149e0
1.026023675e1	3.014108106e-2	6.457828689e-1	-1.495771704e0	1.629502068e0
1.027021875e1	-1.036902831e-1	4.857083237e-1	-1.585088508e0	1.661074902e0
1.028019975e1	-2.093263735e-1	3.424299055e-1	-1.780297803e0	1.824975627e0
1.029018075e1	-3.037280622e-1	3.312827736e-1	-1.961108183e0	2.011950376e0
1.030016275e1	-3.880057356e-1	3.307512617e-1	-2.077343228e0	2.138995030e0
1.031014375e1	-4.613599330e-1	2.687257522e-1	-2.178698280e0	2.243165779e0
1.032012475e1	-5.798052263e-1	2.207657200e-1	-2.272096148e0	2.355277586e0
1.033010675e1	-6.922581469e-1	1.627671880e-1	-2.334791017e0	2.440689164e0
1.034008775e1	-7.587112411e-1	1.192843688e-1	-2.356893492e0	2.478874431e0
1.035006875e1	-8.767922529e-1	1.702767670e-2	-2.209006884e0	2.376713279e0
1.036005075e1	-9.244923033e-1	-9.987278223e-2	-2.101399112e0	2.297942301e0
1.037003175e1	-9.589587890e-1	-1.742628139e-1	-2.013074873e0	2.236613496e0
1.038001275e1	-9.469103088e-1	-2.440920174e-1	-1.874942590e0	2.114622841e0
1.038999475e1	-9.363973805e-1	-3.758403111e-1	-1.765754462e0	2.033712077e0
1.039997575e1	-8.756740460e-1	-6.180857778e-1	-1.774000498e0	2.072658397e0
1.040995675e1	-8.378235573e-1	-8.128430825e-1	-1.797284403e0	2.143103687e0
1.041993875e1	-7.441867574e-1	-1.053401628e0	-1.893983463e0	2.291427999e0
1.042991975e1	-7.359263959e-1	-1.178474155e0	-2.043274573e0	2.470902664e0
1.043990075e1	-8.188376480e-1	-1.363231552e0	-2.033194996e0	2.581235605e0
1.044988175e1	-8.355902132e-1	-1.501438095e0	-2.129086409e0	2.735970814e0
1.045986375e1	-6.785782935e-1	-1.640453308e0	-2.150175123e0	2.788334381e0
1.046984475e1	-4.123601197e-1	-2.092471730e0	-1.863458073e0	2.832129022e0
1.047982575e1	-2.512162650e-1	-2.597792199e0	-1.528182675e0	3.024396834e0
1.048980767e1	-1.681070115e-1	-2.837672467e0	-1.411056952e0	3.173598387e0
1.049978867e1	-2.184812129e-2	-2.709289831e0	-1.540784594e0	3.116848712e0
1.050976967e1	1.627973011e-1	-2.227426636e0	-1.832730809e0	2.889088887e0
1.051975167e1	2.619931220e-1	-1.422700074e0	-2.248425888e0	2.673599609e0
1.052973267e1	2.454055944e-1	-5.681751144e-1	-2.604305997e0	2.676837051e0
1.053971367e1	1.299745408e-1	2.643058419e-2	-2.639510329e0	2.642840656e0
1.054969567e1	8.465101808e-2	3.539506745e-1	-2.343202676e0	2.371296197e0
1.055967667e1	6.196557552e-2	4.499309653e-1	-1.764622441e0	1.822133355e0
1.056965767e1	1.249305864e-1	5.765617758e-1	-1.146744093e0	1.289594180e0
1.057963967e1	2.247080590e-1	9.545369053e-1	-6.908665095e-1	1.199554480e0
1.058962067e1	2.763731794e-1	1.336295183e0	-3.832143809e-1	1.417363825e0
1.059960167e1	3.215204085e-1	1.431798341e0	-6.547171220e-2	1.468914023e0
1.060958367e1	4.233965930e-1	1.118479384e0	1.846129704e-1	1.210100308e0
1.061956467e1	6.254290035e-1	7.154454267e-1	9.591772556e-3	9.503239443e-1
1.062954567e1	7.526356186e-1	2.745250207e-1	-5.022636916e-1	9.455650042e-1
1.063952767e1	6.695056075e-1	-2.393616199e-1	-1.018989740e0	1.242526392e0
1.064950867e1	4.681485504e-1	-8.448700368e-1	-1.486054071e0	1.772378387e0
1.065948967e1	3.903551468e-1	-1.359682292e0	-1.963124303e0	2.419704549e0
1.066947167e1	4.613422452e-1	-1.565938731e0	-2.345637602e0	2.857799247e0
1.067945267e1	5.473736447e-1	-1.482822899e0	-2.550715097e0	3.000754765e0
1.068943367e1	5.656938484e-1	-1.154625117e0	-2.612189798e0	2.911478015e0
1.069941467e1	6.572910663e-1	-7.132889736e-1	-2.547737110e0	2.726128589e0
1.070939667e1	8.029876006e-1	-1.766344446e-1	-2.319914970e0	2.461299307e0
1.071937767e1	9.071080926e-1	2.506531781e-1	-1.948020360e0	2.163436024e0
1.072935867e1	9.386155218e-1	5.196864939e-1	-1.482608891e0	1.830082587e0
1.073934067e1	1.032621793e0	6.059715164e-1	-1.062353715e0	1.600657571e0
1.074932167e1	1.063723864e0	6.882213753e-1	-7.644370539e-1	1.479703054e0
1.075930267e1	1.037881217e0	7.391611487e-1	-5.311343189e-1	1.380456551e0
1.076928467e1	1.091720186e0	7.584856117e-1	-2.830941153e-1	1.359152554e0
1.077926567e1	1.130813500e0	7.920076990e-1	-1.192223883e-1	1.385723402e0
1.078924667e1	1.093199531e0	7.398552132e-1	-1.136685567e-1	1.324911881e0
1.079922867e1	9.978212115e-1	5.282947648e-1	-2.623236358e-1	1.159118725e0
1.080920967e1	9.707157125e-1	3.455254215e-1	-5.612982772e-1	1.173342477e0
1.081919067e1	1.018368327e0	2.582568973e-1	-9.231291711e-1	1.398548584e0
1.082917267e1	1.043732672e0	2.179783523e-1	-1.220013506e0	1.620285594e0
1.083915367e1	1.072885720e0	1.695330012e-1	-1.372958980e0	1.750668891e0
1.084913467e1	1.114933047e0	1.017187482e-1	-1.339805267e0	1.745995578e0
1.085911667e1	1.020982910e0	2.039497125e-1	-1.304881017e0	1.669345997e0
1.086909767e1	8.120380671e-1	3.004480666e-1	-1.125417178e0	1.419943199e0
1.087907867e1	6.459957075e-1	3.587956774e-1	-9.192678161e-1	1.179448223e0
1.088906067e1	5.217780429e-1	4.180268025e-1	-7.645528288e-1	1.015647459e0
1.089904167e1	3.750225779e-1	4.134098411e-1	-6.271249884e-1	8.395447467e-1
1.090902267e1	2.117098448e-1	4.013634074e-1	-4.895113528e-1	6.674840879e-1
1.091900467e1	6.681160167e-2	4.034771758e-1	-3.304332463e-1	5.257791854e-1
1.092898567e1	-2.101745121e-1	3.331135368e-1	-2.259458414e-1	4.540809149e-1
1.093896667e1	-4.837088683e-1	2.740876490e-1	-1.809855039e-1	5.846828724e-1
1.094894767e1	-6.469414946e-1	2.402457190e-1	-1.864045572e-1	7.148412145e-1
1.095892967e1	-8.279134038e-1	1.395636821e-1	-2.165264887e-1	8.670653642e-1
1.096891067e1	-9.422485431e-1	1.739312768e-2	-2.720655356e-1	9.808947413e-1
1.097889167e1	-1.003821917e0	-2.903376460e-2	-3.746182430e-1	1.071839646e0
1.098887367e1	-1.074706835e0	-1.329510659e-1	-4.655722672e-1	1.178740134e0
1.099885467e1	-1.063624022e0	-2.710354024e-1	-4.642057729e-1	1.191739590e0
1.100883567e1	-1.063608381e0	-2.770574498e-1	-4.285849737e-1	1.179707039e0
1.101881767e1	-1.040738166e0	-1.798977757e-1	-4.653180595e-1	1.154131724e0
1.102879867e1	-8.709174822e-1	-3.269996881e-2	-5.457272150e-1	1.028292148e0
1.103877967e1	-6.684854145e-1	1.753334391e-1	-4.717839105e-1	8.367763277e-1
1.104876167e1	-5.639950861e-1	2.539264494e-1	-3.244550530e-1	6.984555679e-1
1.105874267e1	-5.252153286e-1	2.259621406e-1	-1.971347827e-1	6.047909994e-1
1.106872367e1	-4.855641899e-1	2.130438870e-1	-1.339698701e-1	5.469078591e-1
1.107870567e1	-4.554669629e-1	1.955250442e-1	-1.602708654e-1	5.209289275e-1
1.108868667e1	-4.435903908e-1	5.781726837e-2	-2.602845655e-1	5.175551434e-1
1.109866767e1	-4.674677883e-1	-2.052629972e-1	-4.237420173e-1	6.634880016e-1
1.110864967e1	-5.879696935e-1	-5.517841995e-1	-8.762368405e-1	1.190783424e0
1.111863067e1	-6.967150408e-1	-1.050024276e0	-1.469059138e0	1.935483810e0
1.112861167e1	-6.433970587e-1	-1.657687976e0	-1.984745698e0	2.664789802e0
1.113859367e1	-5.114914750e-1	-2.215895342e0	-2.302652381e0	3.236359635e0
1.114857467e1	-3.025213431e-1	-2.720726400e0	-2.358600879e0	3.613429038e0
1.115855567e1	-3.297727302e-2	-2.951306087e0	-2.336496650e0	3.764374014e0
1.116853667e1	3.753678560e-2	-2.681590401e0	-2.410480739e0	3.605933094e0
1.117851867e1	-6.978352211e-2	-2.087654209e0	-2.631078644e0	3.359426240e0
1.118849967e1	-1.453716483e-1	-1.417121245e0	-2.884971179e0	3.217518336e0
1.119848067e1	-2.616083752e-1	-7.542931581e-1	-3.009981726e0	3.114062797e0
1.120846267e1	-4.293384605e-1	-3.746088874e-1	-2.863997217e0	2.920127290e0
1.121844367e1	-4.797076187e-1	-3.701784521e-1	-2.509333767e0	2.581454520e0
1.122842467e1	-3.056807399e-1	-4.503268218e-1	-2.029648660e0	2.101358761e0
1.123840667e1	-7.271538913e-2	-4.614856482e-1	-1.584111877e0	1.651565006e0
1.124838767e1	1.100945923e-1	-4.071404564e-1	-1.319712480e0	1.385469307e0
1.125836867e1	2.425510568e-1	-3.669069350e-1	-1.208267034e0	1.285830837e0
1.126835067e1	3.362874786e-1	-2.745858318e-1	-1.158554592e0	1.237228915e0
1.127833167e1	3.209984715e-1	-1.952168959e-1	-1.334162850e0	1.386052007e0
1.128831267e1	2.933996136e-1	-1.563101077e-1	-1.684817449e0	1.717301959e0
1.129829467e1	2.732387064e-1	-1.408646876e-1	-2.044063362e0	2.067050381e0
1.130827567e1	2.481950086e-1	-1.045517242e-1	-2.459763996e0	2.474463728e0
1.131825667e1	1.999546755e-1	1.113075972e-2	-2.809312302e0	2.816441261e0
1.132823867e1	1.750299686e-1	1.690049976e-1	-3.049076210e0	3.058768366e0
1.133821967e1	2.288661602e-1	3.181937814e-1	-3.085341226e0	3.110137856e0
1.134820067e1	2.348749783e-1	5.071190733e-1	-2.980342190e0	3.032288835e0
1.135818267e1	2.870869596e-1	7.427601099e-1	-2.810238501e0	2.920882047e0
1.136816367e1	4.328515407e-1	8.850895250e-1	-2.492118394e0	2.679813056e0
1.137814467e1	5.443256374e-1	8.842872870e-1	-2.043676715e0	2.292350087e0
1.138812667e1	6.701338908e-1	8.595652592e-1	-1.742721695e0	2.055483099e0
1.139810767e1	8.089942259e-1	8.990175927e-1	-1.522502836e0	1.944407152e0
1.140808867e1	8.195420913e-1	8.934147906e-1	-1.303951456e0	1.780485503e0
1.141807067e1	6.960101590e-1	8.057083100e-1	-1.131864391e0	1.553934690e0
1.142805167e1	5.469628047e-1	6.204714417e-1	-1.095396403e0	1.372605697e0
1.143803267e1	3.947151963e-1	3.794071126e-1	-1.189207962e0	1.309185021e0
1.144801367e1	2.477767865e-1	1.986106199e-1	-1.335925055e0	1.373147940e0
1.145799567e1	2.366762862e-2	4.904293656e-2	-1.525277778e0	1.526249543e0
1.146797667e1	-1.462596942e-1	-1.930095720e-1	-1.722453491e0	1.739393751e0
1.147795767e1	-2.436400276e-1	-5.788474524e-1	-2.059860638e0	2.153474097e0
1.148794050e1	-2.594307990e-1	-8.309273511e-1	-2.492590265e0	2.640217951e0
1.149792150e1	-2.339549920e-1	-8.305484515e-1	-2.962071980e0	3.085193038e0
1.150790250e1	-1.922937267e-1	-8.570281523e-1	-3.194324555e0	3.312881449e0
1.151788450e1	-1.619086705e-1	-9.163879162e-1	-3.207313560e0	3.339587026e0
1.152786550e1	-2.496735502e-1	-9.116499174e-1	-3.063032345e0	3.205559171e0
1.153784650e1	-4.311129443e-1	-7.708863866e-1	-2.905619452e0	3.036897857e0
1.154782850e1	-5.595601192e-1	-5.311189699e-1	-2.840812714e0	2.943707147e0
1.155780950e1	-7.407083219e-1	-1.587127286e-1	-2.749633572e0	2.852073514e0
1.156779050e1	-8.984061932e-1	2.069323772e-1	-2.621430738e0	2.778822378e0
1.157777250e1	-8.960156322e-1	4.542619979e-1	-2.351798667e0	2.557372665e0
1.158775350e1	-7.404995032e-1	5.664215344e-1	-2.006430536e0	2.212450308e0
1.159773450e1	-5.376847353e-1	6.055908626e-1	-1.658923493e0	1.846042341e0
1.160771650e1	-3.925098458e-1	6.689454442e-1	-1.432531582e0	1.629017716e0
1.161769750e1	-3.817819592e-1	6.526387292e-1	-1.287465670e0	1.493071541e0
1.162767850e1	-4.705435699e-1	4.596811974e-1	-1.143689069e0	1.319372101e0
1.163766050e1	-4.798991150e-1	2.159376740e-1	-1.059699664e0	1.183171846e0
1.164764150e1	-4.103363252e-1	7.672833323e-2	-1.042486703e0	1.122961114e0
1.165762250e1	-2.811651188e-1	-2.609238124e-1	-1.021226812e0	1.090889207e0
1.166760450e1	-4.943426147e-2	-7.833579129e-1	-1.083598988e0	1.338013502e0
1.167758550e1	1.894831894e-1	-1.386587670e0	-1.182530953e0	1.832186863e0
1.168756650e1	3.010694794e-1	-2.011863769e0	-1.433729238e0	2.488738271e0
1.169754750e1	1.768865327e-1	-2.475207077e0	-1.792255797e0	3.061065136e0
1.170752950e1	-1.675790079e-2	-2.765950520e0	-2.181189194e0	3.522548709e0
1.171751050e1	-1.320006741e-1	-2.714628339e0	-2.594669786e0	3.757518130e0
1.172749150e1	-2.607825290e-1	-2.481097562e0	-2.887341641e0	3.815834691e0
1.173747350e1	-4.103566443e-1	-2.007483035e0	-3.139938433e0	3.749345820e0
1.174745450e1	-5.528309242e-1	-1.291483877e0	-3.304684319e0	3.590890013e0
1.175743550e1	-6.326497301e-1	-5.519379812e-1	-3.349511998e0	3.453130730e0
1.176741750e1	-5.546481657e-1	3.034354091e-2	-3.128566768e0	3.177496710e0
1.177739850e1	-4.020365681e-1	4.541362828e-1	-2.732857034e0	2.799353627e0
1.178737950e1	-2.054401678e-1	6.498864448e-1	-2.136331109e0	2.242424728e0
1.179736150e1	1.124336978e-1	5.585658002e-1	-1.445612388e0	1.553844351e0
1.180734250e1	4.165813708e-1	3.021022439e-1	-8.449646156e-1	9.893285631e-1
1.181732350e1	6.557615078e-1	-1.467481560e-1	-4.864567673e-1	8.295772194e-1
1.182730550e1	9.141561071e-1	-6.001225466e-1	-4.252738416e-1	1.173322760e0
1.183728650e1	1.166520254e0	-9.058775461e-1	-5.732200190e-1	1.584286849e0
1.184726750e1	1.305675508e0	-1.131849627e0	-8.589548099e-1	1.929682739e0
1.185724950e1	1.356955004e0	-1.255497188e0	-1.231579737e0	2.221348402e0
1.186723050e1	1.497396353e0	-1.220678188e0	-1.660309868e0	2.547327999e0
1.187721150e1	1.624203457e0	-1.104003432e0	-2.119102873e0	2.889196677e0
1.188719350e1	1.739955377e0	-9.907802868e-1	-2.447501800e0	3.162175731e0
1.189717450e1	1.794642192e0	-7.256184125e-1	-2.600427539e0	3.241833751e0
1.190715550e1	1.804687416e0	-3.909056622e-1	-2.497151093e0	3.105715294e0
1.191713650e1	1.820590089e0	-9.800108850e-2	-2.127209453e0	2.801637475e0
1.192711850e1	1.837345870e0	9.516168058e-2	-1.606073434e0	2.442205452e0
1.193709950e1	1.814037553e0	2.901470268e-1	-1.058705198e0	2.120324088e0
1.194708050e1	1.724124333e0	4.704020673e-1	-6.250895727e-1	1.893309218e0
1.195706250e1	1.566273338e0	6.545180243e-1	-4.108611128e-1	1.746543119e0
1.196704350e1	1.395741486e0	8.051177412e-1	-3.067800895e-1	1.640250864e0
1.197702450e1	1.290386208e0	9.454555947e-1	-3.050007087e-1	1.628498781e0
1.198700650e1	1.241196360e0	9.959387004e-1	-3.715566409e-1	1.634171545e0
1.199698750e1	1.335242246e0	8.668760329e-1	-4.767328477e-1	1.661812300e0
1.200696850e1	1.450885992e0	6.224975020e-1	-5.170090904e-1	1.661286159e0
1.201695050e1	1.590201460e0	5.000556368e-1	-6.048430403e-1	1.773310866e0
1.202693150e1	1.841316568e0	4.944382167e-1	-6.577439332e-1	2.016815047e0
1.203691250e1	2.079023572e0	5.509556490e-1	-4.996901858e-1	2.208071879e0
1.204689450e1	2.001864299e0	5.495026159e-1	-3.138358516e-1	2.099501545e0
1.205687550e1	1.632893443e0	5.674149764e-1	-2.748659134e-1	1.750386249e0
1.206685650e1	1.330052550e0	6.026561451e-1	-3.021250115e-1	1.491145109e0
1.207683850e1	1.033977031e0	6.585467559e-1	-4.390112535e-1	1.302122579e0
1.208681950e1	6.497939126e-1	6.315823209e-1	-4.876665197e-1	1.029051501e0
1.209680050e1	3.445071289e-1	5.974638176e-1	-4.879051226e-1	8.448074241e-1
1.210678250e1	2.168286435e-1	5.839742911e-1	-4.268000014e-1	7.551151399e-1
1.211676350e1	2.290496166e-1	5.512690598e-1	-3.327124178e-1	6.834170441e-1
1.212674450e1	1.801147074e-1	4.996311289e-1	-2.421489877e-1	5.837025827e-1
1.213672650e1	1.023913242e-1	4.329600066e-1	-2.107845594e-1	4.923093347e-1
1.214670750e1	1.229603671e-1	3.411400098e-1	-2.507198729e-1	4.408584952e-1
1.215668850e1	1.841754524e-1	1.888188726e-1	-3.737464597e-1	4.574489917e-1
1.216666950e1	1.875357011e-1	4.513699651e-2	-5.854752713e-1	6.164318949e-1
1.217665150e1	1.240111117e-1	-1.583081013e-1	-7.980046034e-1	8.229529499e-1
1.218663250e1	1.676659852e-2	-3.869190305e-1	-9.821667534e-1	1.055764645e0
1.219661350e1	-9.477576435e-2	-5.568864799e-1	-1.240841727e0	1.363375659e0
1.220659550e1	-1.902045165e-1	-6.873431236e-1	-1.494697425e0	1.656121589e0
1.221657650e1	-1.949762830e-1	-6.873536485e-1	-1.748936700e0	1.889245979e0
1.222655750e1	-1.164844295e-1	-7.102951992e-1	-1.953498616e0	2.081884900e0
1.223653950e1	-2.375080526e-2	-7.755267370e-1	-2.122021803e0	2.259420801e0
1.224652050e1	5.178381890e-2	-7.245536345e-1	-2.230965371e0	2.346245090e0
1.225650150e1	3.149602711e-3	-6.166450238e-1	-2.245909685e0	2.329027977e0
1.226648350e1	-1.671147390e-1	-5.686212569e-1	-2.074054754e0	2.157072227e0
1.227646450e1	-3.803528997e-1	-5.340776610e-1	-1.778669792e0	1.895672309e0
1.228644550e1	-6.253548901e-1	-4.575931567e-1	-1.438881658e0	1.634270682e0
1.229642750e1	-8.765435269e-1	-3.393799978e-1	-1.131392375e0	1.470903139e0
1.230640850e1	-1.054699856e0	-2.164890665e-1	-7.977379704e-1	1.340016855e0
1.231638950e1	-1.073926085e0	-9.495118082e-2	-4.667633450e-1	1.174819554e0
1.232637150e1	-9.493504250e-1	1.618819195e-1	-1.514610118e-1	9.748909803e-1
1.233635250e1	-7.477887154e-1	4.404444426e-1	1.713152325e-1	8.846062281e-1
1.234633350e1	-5.012701035e-1	5.997044706e-1	4.261006379e-1	8.902128523e-1
1.235631550e1	-3.027920692e-1	6.155457473e-1	5.311891365e-1	8.676067674e-1
1.236629650e1	-9.246436000e-2	5.631038243e-1	5.662367624e-1	8.039027590e-1
1.237627750e1	8.963343054e-2	4.469395298e-1	5.132212275e-1	6.864292560e-1
1.238625950e1	2.209890836e-1	2.141414094e-1	3.800748646e-1	4.890292640e-1
1.239624050e1	2.453246105e-1	8.222588539e-2	9.988798499e-2	2.773497256e-1
1.240622150e1	2.433331950e-1	-2.418408394e-2	-1.413944453e-1	2.824682334e-1
1.241620250e1	3.105652115e-1	-1.450290745e-1	-3.637511927e-1	4.997990729e-1
1.242618450e1	3.799275148e-1	-2.121241200e-1	-6.144809693e-1	7.529464924e-1
1.243616550e1	4.253440082e-1	-2.884910953e-1	-8.527895057e-1	9.956879925e-1
1.244614650e1	5.629139359e-1	-2.933144635e-1	-1.012830137e0	1.195295093e0
1.245612850e1	7.093801099e-1	-3.974884576e-1	-1.005001885e0	1.292766801e0
1.246610950e1	7.916594973e-1	-5.255869192e-1	-9.351019299e-1	1.333184904e0
1.247609050e1	8.096041636e-1	-7.004917574e-1	-6.314033961e-1	1.242907017e0
1.248607250e1	7.734043439e-1	-7.619249439e-1	-2.835478592e-1	1.122088806e0
1.249605250e1	7.675248224e-1	-4.761376011e-1	-1.112386000e-1	9.100414245e-1
1.250603350e1	7.941512883e-1	4.002769947e-2	1.355384588e-2	7.952749161e-1
1.251601550e1	8.488234855e-1	4.337657529e-1	1.625315269e-1	9.669904525e-1
1.252599650e1	9.387770511e-1	4.466097468e-1	2.333459679e-1	1.065463729e0
1.253597750e1	1.175795399e0	2.760651773e-1	1.813864402e-1	1.221313983e0
1.254595950e1	1.688435121e0	9.226613939e-2	2.915659267e-2	1.691205578e0
1.255594050e1	2.127124815e0	-1.124372792e-1	-4.866641242e-2	2.130650262e0
1.256592150e1	1.978112763e0	-2.831549263e-1	-1.960372603e-1	2.007868876e0
1.257590350e1	1.316058847e0	-3.058830535e-1	-2.036654282e-1	1.366402187e0
1.258588450e1	6.349658123e-1	-1.871904230e-1	-6.075257063e-2	6.647651556e-1
1.259586550e1	2.342318577e-1	9.107272267e-2	-2.235975266e-3	2.513241006e-1
1.260584750e1	1.854337002e-1	1.993193024e-1	1.460026725e-1	3.089184712e-1
1.261582850e1	3.902694851e-1	1.492209435e-2	4.018814707e-1	5.603941973e-1
1.262580950e1	7.370399250e-1	-2.914983183e-1	5.270270519e-1	9.518175424e-1
1.263579150e1	9.782641755e-1	-5.337367684e-1	5.783246748e-1	1.255521869e0
1.264577250e1	9.357785989e-1	-5.596451962e-1	5.071266381e-1	1.202523080e0
1.265575350e1	7.704307424e-1	-4.572861779e-1	2.927479048e-1	9.425367436e-1
1.266573450e1	6.935677039e-1	-4.214012307e-1	3.746435322e-2	8.124153709e-1
1.267571650e1	7.212522966e-1	-4.667592520e-1	-1.788429379e-1	8.775271341e-1
1.268569750e1	7.917846277e-1	-5.343010247e-1	-3.277855539e-1	1.009873186e0
1.269567850e1	7.405613375e-1	-5.065045309e-1	-4.229968993e-1	9.919195085e-1
1.270566050e1	6.104554537e-1	-3.677764159e-1	-4.649998248e-1	8.509642708e-1
1.271564150e1	5.493340699e-1	-1.234382308e-1	-3.286321942e-1	6.519233362e-1
1.272562250e1	4.856896857e-1	1.129652828e-1	-7.625902109e-3	4.987121217e-1
1.273560450e1	3.858169035e-1	3.264026874e-1	3.455365678e-1	6.122000629e-1
1.274558550e1	3.009877646e-1	5.057543331e-1	6.741114593e-1	8.948783937e-1
1.275556650e1	2.207225237e-1	6.160936314e-1	9.966579080e-1	1.192315722e0
1.276554850e1	4.459115893e-2	7.365000808e-1	1.185908890e0	1.396710648e0
1.277552950e1	-1.439963101e-1	7.840087080e-1	1.197605587e0	1.438632591e0
1.278551050e1	-1.798809649e-1	7.623798573e-1	1.049630247e0	1.309696096e0
1.279549250e1	-7.440808497e-2	6.232886302e-1	8.459517717e-1	1.053403854e0
1.280547350e1	-6.047943257e-2	4.858849096e-1	5.617712804e-1	7.452039175e-1
1.281545450e1	-1.437887339e-1	3.191468775e-1	2.837607709e-1	4.506108127e-1
1.282543650e1	-1.942345637e-1	1.155322105e-1	-1.812169075e-2	2.267226347e-1
1.283541750e1	-2.859403937e-1	-2.270356894e-2	-3.693709151e-1	4.676667977e-1
1.284539850e1	-3.172795692e-1	-1.044593382e-1	-6.034513664e-1	6.897330136e-1
1.285538050e1	-3.525131366e-1	-1.083927602e-1	-7.444581413e-1	8.308022786e-1
1.286536150e1	-5.436512341e-1	-7.056829154e-2	-8.648336005e-1	1.023950050e0
1.287534250e1	-7.955130317e-1	-2.433669627e-2	-9.174608803e-1	1.214564830e0
1.288532350e1	-1.074432308e0	-4.104160666e-2	-8.659843326e-1	1.380586130e0
1.289530550e1	-1.318444950e0	-1.086032599e-1	-7.289384615e-1	1.510444648e0
1.290528650e1	-1.350123264e0	-1.233452600e-1	-5.533968616e-1	1.464341137e0
1.291526750e1	-1.250320063e0	-1.747943258e-1	-2.370402753e-1	1.284539376e0
1.292524950e1	-1.092629574e0	-3.863810867e-1	1.565989236e-1	1.169466953e0
1.293523050e1	-8.417983483e-1	-5.829264700e-1	4.494169585e-1	1.118214349e0
1.294521150e1	-6.067905651e-1	-8.202994519e-1	6.080858330e-1	1.187793905e0
1.295519350e1	-3.422495189e-1	-1.154119332e0	6.943650448e-1	1.389701041e0
1.296517450e1	-3.482104629e-2	-1.396435550e0	5.776592982e-1	1.511600151e0
1.297515550e1	1.228450307e-1	-1.509805461e0	2.686900842e-1	1.538440051e0
1.298513750e1	1.700620280e-1	-1.649322950e0	-1.315904554e-1	1.663280894e0
1.299511850e1	2.254948018e-1	-1.916319680e0	-4.126824474e-1	1.973179116e0
1.300509950e1	2.922586025e-1	-2.110923203e0	-5.694065380e-1	2.205818593e0
1.301508150e1	3.643932170e-1	-2.231959398e0	-5.744678879e-1	2.333332065e0
1.302506250e1	4.117963019e-1	-2.376162261e0	-5.098339355e-1	2.464884161e0
1.303504350e1	5.070348734e-1	-2.336295944e0	-4.445755005e-1	2.431668250e0
1.304502550e1	6.330388623e-1	-2.167078108e0	-3.834720969e-1	2.289981785e0
1.305500650e1	7.298765011e-1	-1.849222296e0	-4.111598325e-1	2.030121970e0
1.306498750e1	7.479904443e-1	-1.445618820e0	-4.981348264e-1	1.702187353e0
1.307496950e1	6.818962960e-1	-8.792265218e-1	-7.265223920e-1	1.328855380e0
1.308495050e1	6.787468395e-1	-1.058521450e-1	-1.016898630e0	1.227185712e0
1.309493150e1	7.645456660e-1	5.711694735e-1	-1.177117016e0	1.515377548e0
1.310491350e1	7.842645237e-1	9.690052557e-1	-1.200084879e0	1.730388900e0
1.311489450e1	7.064424688e-1	9.372560441e-1	-1.078523605e0	1.593964561e0
1.312487550e1	6.631958771e-1	6.812637734e-1	-8.773571670e-1	1.293717395e0
1.313485650e1	6.900812285e-1	3.840837157e-1	-5.563251472e-1	9.660383387e-1
1.314483850e1	6.079171774e-1	-6.402350307e-2	-9.047279835e-2	6.179382095e-1
1.315481950e1	4.136981088e-1	-4.296247548e-1	3.479081619e-1	6.904807342e-1
1.316480050e1	1.769015162e-1	-5.570694977e-1	5.995734930e-1	8.373224858e-1
1.317478250e1	-5.285181284e-2	-6.138208187e-1	7.398669076e-1	9.627940343e-1
1.318476350e1	-1.288669319e-1	-5.080049264e-1	7.100449383e-1	8.825188417e-1
1.319474450e1	-1.158445980e-1	-9.625510991e-2	5.176925933e-1	5.391573409e-1
1.320472650e1	-8.647286430e-2	4.557735032e-1	2.131859744e-1	5.105441236e-1
1.321470750e1	5.744173095e-2	9.088140178e-1	-1.398104437e-1	9.212976889e-1
1.322468850e1	2.662893637e-1	1.213066283e0	-2.007325927e-1	1.258067330e0
1.323467050e1	4.622991420e-1	1.431915286e0	-4.445990721e-2	1.505349981e0
1.324465150e1	6.363140340e-1	1.642616778e0	1.774162356e-1	1.770469415e0
1.325463250e1	7.570166449e-1	1.821314120e0	5.055993819e-1	2.036145884e0
1.326461450e1	8.022448580e-1	1.974093094e0	8.549424505e-1	2.295989319e0
1.327459550e1	8.072354566e-1	2.082069533e0	1.153106010e0	2.513224242e0
1.328457650e1	8.775428161e-1	2.160543845e0	1.391997514e0	2.715821824e0
1.329455850e1	1.021553598e0	2.176355885e0	1.598236996e0	2.886946170e0
1.330453950e1	1.181247928e0	2.108327039e0	1.720212253e0	2.966398451e0
1.331452050e1	1.273076403e0	1.956941457e0	1.791507354e0	2.942760947e0
1.332450250e1	1.265089107e0	1.764865685e0	1.781329690e0	2.808618308e0
1.333448350e1	1.140916319e0	1.616558661e0	1.656599225e0	2.580556712e0
1.334446450e1	8.951769952e-1	1.449752217e0	1.498329130e0	2.268945466e0
1.335444650e1	6.219314915e-1	1.225467643e0	1.324105493e0	1.908356644e0
1.336442750e1	4.091675399e-1	9.639281183e-1	1.061132816e0	1.490831428e0
1.337440850e1	2.700904924e-1	6.772052211e-1	8.290135574e-1	1.104001478e0
1.338438950e1	1.327589849e-1	3.988222075e-1	5.999547315e-1	7.325501901e-1
1.339437150e1	1.537715390e-2	1.601716089e-1	3.569000101e-1	3.914958728e-1
1.340435250e1	-6.476624563e-2	1.382047892e-2	1.474936942e-1	1.616788856e-1
1.341433350e1	-1.521799269e-1	-5.605491757e-2	1.365328509e-2	1.627491817e-1
1.342431550e1	-3.560461704e-1	-4.146202147e-2	-4.636958043e-2	3.614389474e-1
1.343429650e1	-5.366903432e-1	-4.373015642e-2	-7.902861874e-2	5.442374239e-1
1.344427750e1	-6.800914067e-1	-2.602946520e-2	-4.035046577e-2	6.817844341e-1
1.345425950e1	-8.345499936e-1	6.877261162e-2	7.335215092e-2	8.405854519e-1
1.346424050e1	-1.023943501e0	1.631800014e-1	2.962269616e-1	1.078349859e0
1.347422150e1	-1.219346631e0	1.644406611e-1	6.025392008e-1	1.370000156e0
1.348420350e1	-1.223421117e0	4.195845008e-2	9.008992267e-1	1.519914194e0
1.349418512e1	-1.052378365e0	-3.522245765e-2	1.208682625e0	1.603014202e0
1.350416612e1	-8.701566133e-1	-3.461902499e-2	1.546090357e0	1.774476374e0
1.351414813e1	-7.585689345e-1	-2.114119291e-2	1.717190412e0	1.877396253e0
1.352412912e1	-7.380548555e-1	-3.870739818e-2	1.685575687e0	1.840485976e0
1.353411013e1	-7.104695924e-1	-1.665491670e-1	1.496293130e0	1.664751873e0
1.354409212e1	-6.482749522e-1	-3.789814353e-1	1.167014197e0	1.387735378e0
1.355407313e1	-4.748269477e-1	-5.905477309e-1	8.789780152e-1	1.160521264e0
1.356405413e1	-1.821951467e-1	-8.920617449e-1	6.618790841e-1	1.125634554e0
1.357403612e1	8.240948796e-2	-8.946742809e-1	3.877265310e-1	9.785526329e-1
1.358401713e1	1.087416928e-1	-8.714935791e-1	3.016683805e-1	9.286170503e-1
1.359399812e1	-1.216149227e-1	-9.440282893e-1	3.766460574e-1	1.023641467e0
1.360398013e1	-4.353946410e-1	-9.759038007e-1	3.947116148e-1	1.139190055e0
1.361396112e1	-6.466481106e-1	-1.049534279e0	4.164036155e-1	1.301179447e0
1.362394212e1	-7.155560853e-1	-1.257158967e0	5.134065843e-1	1.534944787e0
1.363392313e1	-6.586448430e-1	-1.457078193e0	5.493786550e-1	1.690771066e0
1.364390512e1	-5.675705123e-1	-1.485552379e0	4.884179235e-1	1.663596774e0
1.365388613e1	-5.647544932e-1	-1.364807961e0	3.103146583e-1	1.509285790e0
1.366386712e1	-7.244128628e-1	-1.181863201e0	1.222068528e-2	1.386262590e0
1.367384912e1	-8.983555417e-1	-1.014749778e0	-3.080658191e-1	1.389843279e0
1.368383013e1	-1.012708953e0	-8.842755926e-1	-6.308163357e-1	1.485076428e0
1.369381112e1	-1.153940408e0	-8.408717108e-1	-8.301268673e-1	1.651591449e0
1.370379313e1	-1.198651581e0	-8.256204182e-1	-8.430246556e-1	1.681994428e0
1.371377412e1	-1.074866025e0	-7.637744182e-1	-7.429156458e-1	1.513476789e0
1.372375513e1	-8.816164251e-1	-6.686934292e-1	-5.677231246e-1	1.243667146e0
1.373373712e1	-8.462078798e-1	-3.466972035e-1	-4.091413736e-1	1.001830021e0
1.374371812e1	-9.351953392e-1	6.476726890e-2	-3.110350353e-1	9.876881667e-1
1.375369913e1	-9.742671651e-1	4.586602736e-1	-2.255703771e-1	1.100203504e0
1.376368112e1	-9.121882997e-1	7.124072134e-1	-7.894325852e-2	1.160104982e0
1.377366213e1	-7.026967424e-1	7.229427266e-1	5.628880620e-2	1.009751122e0
1.378364312e1	-3.363585953e-1	6.129799891e-1	1.417072622e-1	7.134160916e-1
1.379362512e1	4.425070480e-2	5.769757587e-1	2.382202435e-1	6.257859341e-1
1.380360613e1	3.224891460e-1	6.301918530e-1	3.084990978e-1	7.722128685e-1
1.381358712e1	5.529192902e-1	6.782770157e-1	3.497699153e-1	9.424003635e-1
1.382356913e1	6.434403281e-1	6.249925089e-1	4.075088310e-1	9.852383160e-1
1.383355012e1	5.802088304e-1	5.062630409e-1	3.449506402e-1	8.437627022e-1
1.384353112e1	6.274553561e-1	3.178850484e-1	2.043800676e-1	7.324768528e-1
1.385351313e1	8.586272196e-1	5.181510150e-2	5.265184720e-2	8.617991205e-1
1.386349412e1	9.689685644e-1	-1.277090371e-1	-1.299075902e-1	9.859440445e-1
1.387347513e1	8.967523813e-1	-2.303656787e-1	-3.911214244e-1	1.005091612e0
1.388345712e1	7.030958149e-1	-2.723749995e-1	-7.074739176e-1	1.033949326e0
1.389343813e1	5.216356632e-1	-2.452392411e-1	-1.119688588e0	1.259344506e0
1.390341913e1	3.970103015e-1	-1.278897160e-1	-1.515814059e0	1.572153053e0
1.391340012e1	3.382555783e-1	1.198386848e-2	-1.842961682e0	1.873784462e0
1.392338213e1	3.997912373e-1	2.698946106e-1	-2.180964661e0	2.233670295e0
1.393336312e1	4.778930815e-1	4.753412104e-1	-2.285608771e0	2.382926461e0
1.394334413e1	5.379314147e-1	5.185527188e-1	-2.109188334e0	2.237619842e0
1.395332612e1	6.656414750e-1	6.203697002e-1	-1.787280986e0	2.005569860e0
1.396330712e1	8.094644152e-1	7.998131472e-1	-1.310118953e0	1.735322846e0
1.397328813e1	9.682427788e-1	9.115423286e-1	-8.028864437e-1	1.553393104e0
1.398327012e1	1.120676621e0	1.020882922e0	-3.504563785e-1	1.555936279e0
1.399325113e1	1.266719310e0	1.015653757e0	2.868410567e-2	1.623869805e0
1.400323212e1	1.343561080e0	9.766861582e-1	2.660331094e-1	1.682214565e0
1.401321412e1	1.340736728e0	9.484435219e-1	3.759642720e-1	1.684775719e0
1.402319513e1	1.336198558e0	8.881715924e-1	4.376313472e-1	1.663068417e0
1.403317612e1	1.280625890e0	8.244386959e-1	3.903308809e-1	1.572278610e0
1.404315813e1	1.089677169e0	7.502082932e-1	2.762107730e-1	1.351481116e0
1.405313912e1	8.778411703e-1	5.861324984e-1	1.014760888e-1	1.060402670e0
1.406312012e1	7.193405494e-1	3.905402112e-1	-8.556230664e-2	8.229783660e-1
1.407310213e1	6.182212870e-1	2.585054040e-1	-2.409801292e-1	7.121053477e-1
1.408308312e1	5.539359748e-1	1.577344894e-1	-2.609162110e-1	6.322993773e-1
1.409306413e1	4.675050643e-1	1.061070836e-1	-3.016625333e-1	5.664097301e-1
1.410304612e1	3.477760148e-1	1.067093468e-1	-4.194453371e-1	5.552201653e-1
1.411302713e1	2.091818011e-1	3.673747122e-2	-4.647542417e-1	5.109825563e-1
1.412300812e1	3.896160588e-2	-4.691221118e-2	-4.285529602e-1	4.328699596e-1
1.413299012e1	-1.920817651e-1	-1.648429495e-1	-2.887167978e-1	3.839609249e-1
1.414297113e1	-3.190711561e-1	-3.180435079e-1	-1.433924389e-1	4.727784546e-1
1.415295212e1	-3.521912473e-1	-4.762592232e-1	-3.402436316e-2	5.933120424e-1
1.416293313e1	-3.466513029e-1	-6.412582934e-1	1.069052285e-1	7.367550831e-1
1.417291512e1	-2.576562421e-1	-8.765549290e-1	2.075995628e-1	9.369273511e-1
1.418289612e1	-1.293925966e-1	-1.196429200e0	2.511671301e-1	1.229337302e0
1.419287713e1	-2.989228204e-2	-1.550801459e0	8.816546878e-2	1.553593210e0
1.420285912e1	-1.059914549e-1	-1.761386592e0	-2.936904212e-1	1.788846270e0
1.421284013e1	-2.035640886e-1	-1.817654933e0	-6.986112928e-1	1.957898243e0
1.422282112e1	-2.504891637e-1	-1.723827002e0	-1.013293236e0	2.015214018e0
1.423280312e1	-2.653953244e-1	-1.627919801e0	-1.199600145e0	2.039509271e0
1.424278413e1	-2.958188260e-1	-1.591229108e0	-1.228378386e0	2.031854402e0
1.425276512e1	-3.291983874e-1	-1.522237226e0	-1.147024906e0	1.934229532e0
1.426274713e1	-3.444286300e-1	-1.458782072e0	-1.038935616e0	1.823749826e0
1.427272812e1	-3.876565106e-1	-1.349468375e0	-9.001034206e-1	1.667791544e0
1.428270913e1	-4.437449035e-1	-1.160184065e0	-7.067243776e-1	1.429124189e0
1.429269112e1	-3.310313433e-1	-1.022656968e0	-4.122193480e-1	1.151231434e0
1.430267212e1	-3.683921278e-2	-1.110372219e0	-2.745969415e-2	1.111322468e0
1.431265313e1	1.924298206e-1	-1.239755899e0	3.444588894e-1	1.301028766e0
1.432263512e1	3.577933185e-1	-1.183690456e0	4.160790950e-1	1.304707235e0
1.433261613e1	4.268578523e-1	-7.654964232e-1	9.504526617e-2	8.816042211e-1
1.434259712e1	4.351856031e-1	-4.437042654e-2	-3.950834978e-1	5.894456837e-1
1.435257912e1	5.268224359e-1	7.537604767e-1	-6.610791850e-1	1.132573364e0
1.436256013e1	5.967163973e-1	1.538714679e0	-8.454050571e-1	1.854298529e0
1.437254112e1	4.960457624e-1	2.311864523e0	-9.508157372e-1	2.548495544e0
1.438252313e1	3.252244735e-1	2.753126407e0	-8.520983648e-1	2.900266814e0
1.439250412e1	1.171577364e-1	2.720304231e0	-4.502426219e-1	2.759800620e0
1.440248512e1	-2.469893128e-2	2.376014911e0	7.180380821e-2	2.377227940e0
1.441246613e1	-1.679375884e-1	1.925481682e0	5.602755260e-1	2.012359662e0
1.442244812e1	-3.039951338e-1	1.567550808e0	9.313778383e-1	1.848538140e0
1.443242913e1	-4.806314787e-1	1.115078058e0	1.236970870e0	1.733350117e0
1.444241012e1	-5.811879466e-1	5.632652074e-1	1.295965768e0	1.527931410e0
1.445239213e1	-5.081198242e-1	-2.076053917e-2	1.056035725e0	1.172104180e0
1.446237313e1	-3.844018042e-1	-5.507708770e-1	5.084773815e-1	8.424147159e-1
1.447235412e1	-1.612568521e-1	-9.770305592e-1	-1.726472282e-1	1.005186327e0
1.448233613e1	2.233987212e-1	-1.297556210e0	-8.779728788e-1	1.582528193e0
1.449231729e1	6.660091187e-1	-1.288945600e0	-1.631616411e0	2.183373770e0
1.450229829e1	9.723378763e-1	-1.065321761e0	-2.348166962e0	2.755764772e0
1.451228029e1	1.136967695e0	-8.363652617e-1	-2.841910529e0	3.173114849e0
1.452226129e1	1.262193712e0	-6.071011984e-1	-3.087645029e0	3.390465552e0
1.453224229e1	1.382167175e0	-3.747340178e-1	-2.793830629e0	3.139474680e0
1.454222429e1	1.355881017e0	-3.140656471e-2	-2.076722839e0	2.480358332e0
1.455220529e1	1.200403553e0	4.231349301e-1	-1.216455914e0	1.760618314e0
1.456218629e1	1.037198847e0	8.260121816e-1	-4.825590499e-1	1.411007019e0
1.457216829e1	8.412773614e-1	1.100668180e0	4.209993443e-2	1.385997996e0
1.458214929e1	5.999936154e-1	1.112184271e0	4.444199280e-1	1.339572792e0
1.459213029e1	5.358272941e-1	1.113834355e0	6.585637128e-1	1.400515628e0
1.460211229e1	6.649788393e-1	1.210530345e0	6.684449226e-1	1.534405158e0
1.461209329e1	9.158657598e-1	1.200623993e0	5.839099717e-1	1.619030240e0
1.462207429e1	1.130373790e0	1.080153809e0	4.135326326e-1	1.617246547e0
1.463205629e1	1.268325541e0	9.938939291e-1	2.139443582e-1	1.625499003e0
1.464203729e1	1.230679120e0	9.363181508e-1	-2.987340650e-2	1.546659366e0
1.465201829e1	1.006004828e0	8.899099696e-1	-2.479336381e-1	1.365817176e0
1.466200029e1	6.425714318e-1	8.025426275e-1	-4.036701339e-1	1.104500924e0
1.467198129e1	2.870602816e-1	7.397172189e-1	-4.483294495e-1	9.113640680e-1
1.468196229e1	-6.107562929e-3	7.268667930e-1	-3.747913206e-1	8.178271034e-1
1.469194329e1	-2.269478349e-1	6.660797238e-1	-1.981223774e-1	7.310403509e-1
1.470192529e1	-3.973874469e-1	6.145996678e-1	-1.042966942e-2	7.319551302e-1
1.471190629e1	-5.537577809e-1	6.319805163e-1	2.036339629e-1	8.645888293e-1
1.472188729e1	-7.372653352e-1	6.623176253e-1	3.548961693e-1	1.052699436e0
1.473186929e1	-8.684670603e-1	5.739357913e-1	3.738961118e-1	1.106090245e0
1.474185029e1	-8.924998476e-1	4.536819541e-1	2.693151516e-1	1.036780567e0
1.475183129e1	-8.598516266e-1	3.761057746e-1	2.094952118e-1	9.616073093e-1
1.476181329e1	-8.666023833e-1	3.139948958e-1	1.925745392e-1	9.416355125e-1
1.477179429e1	-9.458870461e-1	2.280326396e-1	2.802172852e-1	1.012532921e0
1.478177529e1	-1.013453012e0	1.180359882e-1	4.359140199e-1	1.109522660e0
1.479175729e1	-1.050509960e0	-2.969157636e-2	5.834047723e-1	1.202004116e0
1.480173829e1	-1.149464072e0	-1.869004011e-1	6.837289596e-1	1.350438707e0
1.481171929e1	-1.264701144e0	-3.143451440e-1	7.169516695e-1	1.487380768e0
1.482170129e1	-1.343088040e0	-4.469927394e-1	6.341001320e-1	1.551054793e0
1.483168229e1	-1.372586220e0	-5.940151298e-1	4.321092367e-1	1.556780427e0
1.484166329e1	-1.406459725e0	-6.920279127e-1	2.264626622e-1	1.583766689e0
1.485164529e1	-1.395424859e0	-6.842324048e-1	1.302478981e-1	1.559598999e0
1.486162629e1	-1.516994758e0	-6.123356259e-1	1.527245859e-1	1.643031593e0
1.487160729e1	-1.676890671e0	-6.373587853e-1	2.964994419e-1	1.818268534e0
1.488158929e1	-1.752105599e0	-7.448434728e-1	5.015881920e-1	1.968821105e0
1.489157029e1	-1.714609159e0	-9.368198419e-1	6.773917472e-1	2.067939932e0
1.490155129e1	-1.603737764e0	-1.187247902e0	7.367632055e-1	2.127052519e0
1.491153329e1	-1.478784520e0	-1.463723554e0	6.852597606e-1	2.190632611e0
1.492151429e1	-1.380964987e0	-1.738928021e0	4.990130782e-1	2.275950134e0
1.493149529e1	-1.300407313e0	-1.973051121e0	1.623678231e-1	2.368618419e0
1.494147729e1	-1.182352906e0	-2.093773904e0	-2.065774512e-1	2.413404608e0
1.495145829e1	-1.014422553e0	-1.997628137e0	-6.276670253e-1	2.326700923e0
1.496143929e1	-9.451275659e-1	-1.664494135e0	-9.948569655e-1	2.157208201e0
1.497142129e1	-1.046109857e0	-1.255832818e0	-1.157264550e0	2.002678990e0
1.498140229e1	-1.082920053e0	-7.361960256e-1	-1.131611645e0	1.730677713e0
1.499138329e1	-9.231209850e-1	-1.206526172e-1	-9.451953936e-1	1.326689014e0
1.500136429e1	-6.500638347e-1	3.227762443e-1	-6.590876234e-1	9.803897125e-1
1.501134629e1	-3.569073191e-1	5.214359808e-1	-3.684728193e-1	7.314714862e-1
1.502132729e1	6.732045561e-3	4.962543619e-1	-6.262015304e-2	5.002349405e-1
1.503130829e1	4.959582004e-1	3.802151978e-1	1.224430346e-1	6.368127118e-1
1.504129029e1	1.006530347e0	2.530639851e-1	1.366026521e-1	1.046807052e0
1.505127129e1	1.336998311e0	1.877535099e-1	-1.435489615e-2	1.350193292e0
1.506125229e1	1.562634469e0	1.998455518e-1	-2.777836557e-1	1.599665118e0
1.507123429e1	1.713860715e0	1.790323877e-1	-5.375251794e-1	1.805077413e0
1.508121529e1	1.816403921e0	1.211876374e-1	-7.495732856e-1	1.968722875e0
1.509119629e1	1.815787478e0	9.716259778e-2	-9.248038137e-1	2.040045791e0
1.510117829e1	1.725263078e0	4.688180566e-2	-9.894073606e-1	1.989386216e0
1.511115929e1	1.587907305e0	-7.524080157e-2	-9.109260321e-1	1.832183676e0
1.512114029e1	1.425114828e0	-2.007068467e-1	-8.268652904e-1	1.659801711e0
1.513112229e1	1.336555531e0	-3.138247418e-1	-7.776925457e-1	1.577869561e0
1.514110329e1	1.279959892e0	-3.419831783e-1	-8.269822347e-1	1.561777652e0
1.515108429e1	1.207991777e0	-1.920301634e-1	-9.717604637e-1	1.562190166e0
1.516106629e1	1.196994480e0	5.646890044e-2	-1.124302626e0	1.643180123e0
1.517104729e1	1.232161974e0	3.133680743e-1	-1.298804591e0	1.817502694e0
1.518102829e1	1.300563433e0	4.961619759e-1	-1.387298691e0	1.965258153e0
1.519101029e1	1.377011246e0	6.010247719e-1	-1.306421174e0	1.991011560e0
1.520099129e1	1.542326066e0	7.285788578e-1	-1.087156434e0	2.022747132e0
1.521097229e1	1.768204884e0	8.747826380e-1	-7.885063863e-1	2.124508295e0
1.522095429e1	1.925528168e0	1.027279776e0	-4.366408288e-1	2.225672410e0
1.523093529e1	1.996100552e0	1.178704535e0	-8.082368653e-2	2.319546133e0
1.524091629e1	1.940720550e0	1.270379521e0	2.392446939e-1	2.331844421e0
1.525089829e1	1.900774711e0	1.256247386e0	4.567704535e-1	2.323734332e0
1.526087929e1	1.915776474e0	1.208614798e0	5.430133760e-1	2.329337407e0
1.527086029e1	1.844374223e0	1.169956516e0	5.279918424e-1	2.247062507e0
1.528084129e1	1.675303737e0	1.104996289e0	4.548420052e-1	2.057799956e0
1.529082329e1	1.499316287e0	1.056530473e0	2.605530624e-1	1.852591122e0
1.530080429e1	1.327943751e0	9.054138619e-1	1.187922159e-2	1.607280307e0
1.531078529e1	1.186514077e0	6.591712385e-1	-2.975987184e-1	1.389563735e0
1.532076729e1	1.052453794e0	4.551566219e-1	-5.819616795e-1	1.285887217e0
1.533074829e1	8.760468060e-1	3.854642433e-1	-7.437845421e-1	1.212128761e0
1.534072929e1	6.442421275e-1	3.789685714e-1	-8.124729538e-1	1.103982517e0
1.535071129e1	3.702856024e-1	3.663491106e-1	-8.106018448e-1	9.635343527e-1
1.536069229e1	2.214922366e-1	3.932755387e-1	-7.769733381e-1	8.985610877e-1
1.537067329e1	1.313550684e-1	4.231659204e-1	-6.651734054e-1	7.992366417e-1
1.538065529e1	8.792809010e-2	4.405379981e-1	-5.252846181e-1	6.911794317e-1
1.539063629e1	9.123922214e-2	3.332304811e-1	-4.113422656e-1	5.371867540e-1
1.540061729e1	4.280205712e-2	1.856719011e-1	-3.833598304e-1	4.281014255e-1
1.541059929e1	-2.496848792e-2	6.082215250e-2	-4.211141324e-1	4.262157577e-1
1.542058029e1	-2.828985259e-2	-9.466291308e-2	-4.562769485e-1	4.668511932e-1
1.543056129e1	-5.908757597e-3	-2.849558687e-1	-5.118769526e-1	5.858777818e-1
1.544054329e1	-2.967154965e-2	-4.635900611e-1	-5.435934198e-1	7.150454193e-1
1.545052429e1	-1.173474786e-1	-5.752420592e-1	-5.468374550e-1	8.023123205e-1
1.546050529e1	-2.897285123e-1	-6.918361241e-1	-5.070869136e-1	9.053822239e-1
1.547048729e1	-4.915401904e-1	-8.595529801e-1	-4.944873333e-1	1.106779475e0
1.548046829e1	-6.755364257e-1	-9.841156304e-1	-5.380607843e-1	1.309329005e0
1.549044929e1	-7.419356525e-1	-1.074786065e0	-5.939554882e-1	1.434718341e0
1.550043087e1	-7.483352838e-1	-1.164119825e0	-6.870969558e-1	1.545083458e0
1.551041188e1	-7.319243422e-1	-1.218135234e0	-7.571641409e-1	1.610237320e0
1.552039287e1	-7.558822851e-1	-1.282053487e0	-7.778796566e-1	1.679320081e0
1.553037488e1	-9.109975143e-1	-1.351449412e0	-7.954446924e-1	1.813577747e0
1.554035587e1	-1.048474325e0	-1.487104815e0	-8.254596198e-1	1.998039721e0
1.555033687e1	-1.011418619e0	-1.668766111e0	-8.889498568e-1	2.144290047e0
1.556031888e1	-9.159692556e-1	-1.872314705e0	-9.851763153e-1	2.305457526e0
1.557029987e1	-7.251290005e-1	-2.085417649e0	-1.126949075e0	2.478869310e0
1.558028088e1	-3.920783213e-1	-2.270515938e0	-1.265371381e0	2.628713139e0
1.559026287e1	8.490741849e-2	-2.328793967e0	-1.373023299e0	2.704752038e0
1.560024388e1	5.123999861e-1	-2.161367133e0	-1.433368319e0	2.643597240e0
1.561022488e1	8.364146706e-1	-1.894656916e0	-1.474263160e0	2.542197120e0
1.562020687e1	9.388961881e-1	-1.510877255e0	-1.429092835e0	2.281793694e0
1.563018788e1	7.923830903e-1	-7.155009753e-1	-1.412984340e0	1.770970737e0
1.564016887e1	4.218628684e-1	2.497684944e-1	-1.339746795e0	1.426630315e0
1.565014988e1	1.432436273e-2	1.010734495e0	-9.988038361e-1	1.421055421e0
1.566013187e1	-2.689436341e-1	1.409412861e0	-4.169555561e-1	1.494197854e0
1.567011287e1	-4.002686624e-1	1.417642817e0	3.507113171e-1	1.514240597e0
1.568009388e1	-4.503358119e-1	1.291497910e0	1.076209277e0	1.740400989e0
1.569007587e1	-4.858176666e-1	1.131150885e0	1.497268445e0	1.938384360e0
1.570005688e1	-5.518984395e-1	9.447831649e-1	1.569794970e0	1.913495065e0
1.571003787e1	-6.304742736e-1	7.637200391e-1	1.305718338e0	1.638800320e0
1.572001987e1	-7.077045172e-1	4.989762408e-1	8.180090976e-1	1.191201854e0
1.573000088e1	-6.781457457e-1	2.196892476e-1	2.257843852e-1	7.477456831e-1
1.573998187e1	-6.148099483e-1	1.706767166e-1	-4.574779665e-1	7.851164907e-1
1.574996388e1	-5.988092619e-1	1.230482215e-1	-9.608694398e-1	1.138851824e0
1.575994487e1	-6.221759051e-1	1.078285038e-2	-1.318631330e0	1.458083574e0
1.576992587e1	-6.619734436e-1	-5.605784118e-2	-1.548508766e0	1.685001697e0
1.577990788e1	-6.929587164e-1	-7.069985390e-2	-1.479005252e0	1.634823167e0
1.578988887e1	-7.335079875e-1	-1.477316576e-1	-1.090526769e0	1.322538183e0
1.579986988e1	-7.586010942e-1	-1.515925741e-1	-5.256670260e-1	9.352976804e-1
1.580985187e1	-7.075528550e-1	6.071397901e-2	-1.532672167e-2	7.103183359e-1
1.581983288e1	-6.258330461e-1	2.963363045e-1	5.237701893e-1	8.682265938e-1
1.582981387e1	-5.307285221e-1	5.236362880e-1	9.301282883e-1	1.192059713e0
1.583979587e1	-4.136105467e-1	8.230382878e-1	1.146888081e0	1.470992175e0
1.584977688e1	-1.479634266e-1	1.106613629e0	1.218403037e0	1.652571590e0
1.585975787e1	2.143826801e-1	1.258021431e0	1.339076558e0	1.849784820e0
1.586973988e1	5.683726041e-1	1.289290001e0	1.431655669e0	2.008719513e0
1.587972087e1	8.785650556e-1	1.342813075e0	1.511933262e0	2.204759783e0
1.588970187e1	1.083780398e0	1.289149668e0	1.670310946e0	2.372008742e0
1.589968388e1	1.181335344e0	1.269795969e0	1.876962072e0	2.555566790e0
1.590966487e1	1.254161245e0	1.307760186e0	1.978673218e0	2.682965680e0
1.591964588e1	1.267148350e0	1.379290345e0	2.064490464e0	2.787512811e0
1.592962787e1	1.205862659e0	1.260652678e0	2.083835392e0	2.717668094e0
1.593960887e1	1.108263275e0	1.104475887e0	2.020883099e0	2.555794000e0
1.594958988e1	9.183008328e-1	9.229724658e-1	1.854926255e0	2.266253737e0
1.595957187e1	6.487905304e-1	7.537704170e-1	1.548975374e0	1.840767150e0
1.596955288e1	4.302998158e-1	6.483994979e-1	1.267987425e0	1.487740552e0
1.597953387e1	2.430827149e-1	5.603006691e-1	1.052583164e0	1.216945916e0
1.598951488e1	7.334294155e-2	4.030789804e-1	9.709945516e-1	1.053889117e0
1.599949687e1	-6.755639076e-2	2.956480873e-1	9.557320762e-1	1.002694100e0
1.600947787e1	-2.361798576e-1	2.435084653e-1	9.617359972e-1	1.019810485e0
1.601945888e1	-4.983770473e-1	2.651098341e-1	9.038275854e-1	1.065629959e0
1.602944087e1	-7.562054899e-1	2.804687154e-1	8.037769747e-1	1.138668902e0
1.603942188e1	-9.314894470e-1	2.509075320e-1	6.624627093e-1	1.170249555e0
1.604940287e1	-1.033270030e0	2.164621693e-1	5.616883595e-1	1.195824669e0
1.605938487e1	-1.135853800e0	1.481643516e-1	6.682338381e-1	1.326142147e0
1.606936588e1	-1.235823939e0	9.454012156e-2	8.337451243e-1	1.493763560e0
1.607934687e1	-1.327881332e0	6.200972199e-2	9.755120373e-1	1.648859537e0
1.608932888e1	-1.379380392e0	-6.937370539e-2	1.107908202e0	1.770582831e0
1.609930987e1	-1.376576067e0	-2.229250968e-1	1.094860725e0	1.772957212e0
1.610929087e1	-1.193973077e0	-3.468311048e-1	1.036918327e0	1.618969778e0
1.611927288e1	-9.494391565e-1	-5.275843281e-1	1.009815386e0	1.483073514e0
1.612925387e1	-7.650731579e-1	-6.935668999e-1	9.386466582e-1	1.395503325e0
1.613923488e1	-6.499666978e-1	-7.820826352e-1	8.609498068e-1	1.332420552e0
1.614921687e1	-6.065189619e-1	-9.097951806e-1	8.417721089e-1	1.379917681e0
1.615919788e1	-5.033126821e-1	-1.182079548e0	8.733238307e-1	1.553489693e0
1.616917888e1	-3.694329321e-1	-1.585750852e0	9.461005425e-1	1.883133742e0
1.617916087e1	-2.199149501e-1	-2.074947624e0	1.003780986e0	2.315458161e0
1.618914188e1	-1.049661456e-1	-2.489535679e0	9.536142877e-1	2.667992878e0
1.619912287e1	-1.062251973e-1	-2.677271063e0	7.639610906e-1	2.786162358e0
