"Time (s)"	"Linear Acceleration x (m/s^2)"	"Linear Acceleration y (m/s^2)"	"Linear Acceleration z (m/s^2)"	"Absolute acceleration (m/s^2)"
-2.437083313e-4	-4.993875924e-1	-6.845569253e-1	8.198498011e-2	8.513093964e-1
9.737291672e-3	-1.075203410e0	-1.407901356e0	3.964473608e-1	1.815328926e0
1.971829167e-2	-1.678207464e0	-2.269903734e0	7.597073874e-1	2.923353993e0
2.969929167e-2	-2.109614889e0	-3.434546885e0	1.191204128e0	4.203041109e0
3.968029167e-2	-2.365670456e0	-4.814883882e0	1.565089715e0	5.588292165e0
4.966129167e-2	-2.647425705e0	-6.092246733e0	1.859891710e0	6.898081638e0
5.964229167e-2	-2.904820722e0	-7.209095913e0	2.254790144e0	8.092782334e0
6.962229167e-2	-2.796965029e0	-8.050466976e0	2.725337807e0	8.947653215e0
7.960329167e-2	-2.450758261e0	-8.626283816e0	3.248729681e0	9.537988943e0
8.958429167e-2	-2.167414031e0	-9.255267634e0	3.806673338e0	1.023955197e1
9.956529167e-2	-1.915431634e0	-1.005993806e1	4.173399009e0	1.105841270e1
1.095462917e-1	-1.550338652e0	-1.081165377e1	4.081173508e0	1.165981922e1
1.195272917e-1	-1.312459740e0	-1.127133847e1	3.757667823e0	1.195348021e1
1.295082917e-1	-1.271356006e0	-1.162382033e1	3.452372415e0	1.219214585e1
1.394892917e-1	-1.194155364e0	-1.167772230e1	3.102469183e0	1.214168523e1
1.494692917e-1	-9.741231774e-1	-1.129576229e1	2.688413809e0	1.165206980e1
1.594502917e-1	-3.885229218e-1	-1.060991547e1	2.135403449e0	1.082964470e1
1.694312917e-1	3.576022607e-1	-9.440282893e0	1.487424073e0	9.563433006e0
1.794122917e-1	8.364218335e-1	-7.665268196e0	8.210937962e-1	7.754362193e0
1.893932917e-1	9.892700972e-1	-5.575159911e0	3.569786552e-1	5.673490735e0
1.993742917e-1	1.095552597e0	-3.245553766e0	-6.858696252e-2	3.426158040e0
2.093552917e-1	1.193402389e0	-7.031662738e-1	-6.856120554e-1	1.545547140e0
2.193352917e-1	1.260944454e0	1.800554166e0	-1.519246960e0	2.672094225e0
2.293162917e-1	1.438116843e0	4.027161022e0	-2.395413049e0	4.901449748e0
2.392972917e-1	1.952496988e0	5.858599012e0	-3.209393415e0	6.959571320e0
2.492782917e-1	2.858540303e0	7.282524662e0	-3.785159385e0	8.691021211e0
2.592592917e-1	3.692831557e0	8.430649429e0	-4.065375208e0	1.006181546e1
2.692402917e-1	4.292304770e0	9.378826318e0	-4.001147345e0	1.106324742e1
2.792212917e-1	4.585971529e0	1.013236285e1	-3.496819440e0	1.165863019e1
2.892022917e-1	4.540628710e0	1.071104541e1	-2.843931327e0	1.197629944e1
2.991822917e-1	4.365152307e0	1.106861200e1	-2.354987154e0	1.212908450e1
3.091632917e-1	4.099800398e0	1.118856763e1	-2.107830611e0	1.210104784e1
3.191446667e-1	3.848177751e0	1.102942279e1	-2.064034381e0	1.186241447e1
3.291256667e-1	3.437445643e0	1.057643432e1	-2.171492171e0	1.133103586e1
3.391066667e-1	2.938905019e0	1.008488696e1	-2.298042583e0	1.075281858e1
3.490876667e-1	2.360830569e0	9.605022347e0	-2.437558902e0	1.018683801e1
3.590686667e-1	1.892941635e0	9.229981935e0	-2.813346004e0	9.833143459e0
3.690486667e-1	1.457001449e0	9.077497661e0	-3.134007310e0	9.713177586e0
3.790296667e-1	1.311790233e0	9.046034378e0	-3.270651477e0	9.708176588e0
3.890106667e-1	1.440222863e0	9.209277529e0	-3.227801912e0	9.864265796e0
3.989916667e-1	1.737533022e0	9.348047159e0	-2.898672667e0	9.940186614e0
4.089726667e-1	2.089235442e0	9.348469328e0	-2.382212082e0	9.870851935e0
4.189536667e-1	2.349930482e0	9.337729747e0	-1.791830705e0	9.794183344e0
4.289346667e-1	2.521748575e0	9.352360066e0	-1.334895360e0	9.777924130e0
4.389146667e-1	2.512398000e0	9.299427561e0	-1.146843057e0	9.700863141e0
4.488956667e-1	2.283557129e0	9.088961127e0	-9.911568475e-1	9.423706247e0
4.588766667e-1	1.955888081e0	8.641022893e0	-7.870668018e-1	8.894506674e0
4.688576667e-1	1.618548177e0	8.016538507e0	-6.606570160e-1	8.204940921e0
4.788386667e-1	1.224692156e0	7.299523687e0	-4.757712731e-1	7.416823797e0
4.888196667e-1	5.516071750e-1	6.182987918e0	-1.568229085e-1	6.209525223e0
4.988006667e-1	-1.532385653e-1	4.542142847e0	2.431161171e-1	4.551225016e0
5.087816667e-1	-7.461545648e-1	2.676605650e0	9.173860359e-1	2.926185499e0
5.187616667e-1	-1.208485136e0	6.394363010e-1	1.754391568e0	2.224231301e0
5.287426667e-1	-1.490950383e0	-1.670916717e0	2.767181651e0	3.559801962e0
5.387236667e-1	-2.192283993e0	-5.032742366e0	4.661167307e0	7.201464121e0
5.487046667e-1	-3.177469956e0	-9.604092640e0	7.168416833e0	1.239843178e1
5.586856667e-1	-4.059577401e0	-1.444062057e1	9.097834277e0	1.754372480e1
5.686666667e-1	-4.764322423e0	-1.882627088e1	9.697690190e0	2.170650682e1
5.786476667e-1	-5.351640152e0	-2.321916004e1	9.639683472e0	2.570394800e1
5.886276667e-1	-5.160867140e0	-2.580679153e1	8.010667902e0	2.750992256e1
5.986086667e-1	-5.040088223e0	-2.622308756e1	5.236682138e0	2.721168224e1
6.085896667e-1	-5.338728915e0	-2.606281070e1	2.461870455e0	2.671765211e1
6.185706667e-1	-6.051402177e0	-2.544911969e1	9.670142788e-1	2.617655970e1
6.285516667e-1	-6.580044851e0	-2.434236573e1	9.053828716e-1	2.523227056e1
6.385326667e-1	-6.419503698e0	-2.278999312e1	1.819121999e0	2.374664227e1
6.485136667e-1	-5.554486495e0	-2.058233943e1	3.255368902e0	2.156577018e1
6.584946667e-1	-4.057253425e0	-1.788622338e1	4.200799354e0	1.881555227e1
6.684746667e-1	-2.307787260e0	-1.496113503e1	4.825415887e0	1.588855192e1
6.784556667e-1	-9.159502521e-1	-1.184140224e1	5.043484286e0	1.290327500e1
6.884366667e-1	6.390919000e-2	-8.750160003e0	4.773524479e0	9.967743998e0
6.984176667e-1	5.516356802e-1	-5.683833922e0	4.126123978e0	7.045223138e0
7.083986667e-1	6.895790988e-1	-2.712060242e0	3.155066934e0	4.217254729e0
7.183796667e-1	6.654634273e-1	1.841715056e-1	1.817448818e0	1.944191586e0
7.283606667e-1	7.681648001e-1	3.257145286e0	1.060934888e-1	3.348182851e0
7.383406667e-1	1.000580513e0	5.959646500e0	-1.406422741e0	6.204560636e0
7.483216667e-1	1.265229294e0	8.160150801e0	-2.801740158e0	8.720012280e0
7.583026667e-1	1.756795650e0	9.617902594e0	-3.697694394e0	1.045290989e1
7.682836667e-1	2.619297674e0	1.067575512e1	-4.094376521e0	1.173014863e1
7.782646667e-1	3.817373742e0	1.140001698e1	-3.987903109e0	1.266633730e1
7.882456667e-1	5.155588274e0	1.174767137e1	-3.130264507e0	1.320554539e1
7.982266667e-1	6.310894006e0	1.181664513e1	-1.893976592e0	1.352950970e1
8.082076667e-1	6.734069867e0	1.176931075e1	-6.284653164e-1	1.357421604e1
8.181876667e-1	6.385181712e0	1.169289466e1	4.986018728e-1	1.333202666e1
8.281686667e-1	5.360463016e0	1.146707051e1	1.080978266e0	1.270420339e1
8.381496667e-1	3.890199351e0	1.130637382e1	1.070648575e0	1.200475024e1
8.481306667e-1	2.533849972e0	1.116163769e1	6.784916085e-1	1.146572730e1
8.581116667e-1	1.508278753e0	1.088044041e1	6.436848879e-2	1.098467258e1
8.680926667e-1	8.662721618e-1	1.069534563e1	-4.831023659e-1	1.074123985e1
8.780736667e-1	5.266326937e-1	1.074935519e1	-8.208895822e-1	1.079350910e1
8.880536667e-1	4.129569742e-1	1.076842998e1	-9.305475336e-1	1.081644750e1
8.980346667e-1	2.769406517e-1	1.074628891e1	-1.047255181e0	1.080074835e1
9.080156667e-1	2.143229654e-1	1.079251934e1	-1.313958527e0	1.087432274e1
9.179966667e-1	2.622669178e-1	1.078618096e1	-1.563550874e0	1.090207205e1
9.279776667e-1	3.411569667e-1	1.057805750e1	-1.712402274e0	1.072119444e1
9.379586667e-1	3.659880450e-1	1.046263698e1	-2.064403486e0	1.067063641e1
9.479396667e-1	3.942417911e-1	1.037395459e1	-2.430985170e0	1.066227224e1
9.579206667e-1	3.784883688e-1	1.015183290e1	-2.784866263e0	1.053368145e1
9.679006667e-1	3.895809755e-1	1.007834042e1	-3.206418352e0	1.058328104e1
9.778816667e-1	4.217339373e-1	1.009087568e1	-3.396140034e0	1.065539294e1
9.878626667e-1	5.844454305e-1	1.014179207e1	-3.425686600e0	1.072067402e1
9.978436667e-1	7.880722305e-1	1.024231740e1	-3.193612949e0	1.075756883e1
1.007824667e0	9.954109892e-1	1.036800447e1	-2.838639597e0	1.079556550e1
1.017805667e0	1.236378985e0	1.038566072e1	-2.546259226e0	1.076447944e1
1.027786667e0	1.439265820e0	1.006533738e1	-2.114612942e0	1.038528240e1
1.037766667e0	1.564921754e0	8.919681310e0	-1.319612785e0	9.151561215e0
1.047747667e0	1.170391403e0	6.689556184e0	-3.856817597e-1	6.802112054e0
1.057728667e0	5.680232330e-1	4.325976546e0	-1.868819824e-1	4.367109839e0
1.067709667e0	-2.094111581e-1	1.993965442e0	-2.576107800e-1	2.021413993e0
1.077690667e0	-7.719836167e-1	-1.040724279e0	-2.635340095e-2	1.296055644e0
1.087671667e0	-1.521704837e0	-4.278731044e0	4.597569188e-1	4.564482597e0
1.097652667e0	-2.404863611e0	-7.568942919e0	1.416617215e0	8.067159986e0
1.107632667e0	-3.109185002e0	-1.162746665e1	3.491323934e0	1.253213290e1
1.117613667e0	-3.314958169e0	-1.656606475e1	6.038526024e0	1.794121639e1
1.127594667e0	-3.334500149e0	-2.087322905e1	7.613181784e0	2.246711195e1
1.137575667e0	-4.185204245e0	-2.391116632e1	8.233843260e0	2.563310329e1
1.147556667e0	-5.809232140e0	-2.640052249e1	8.617241682e0	2.837237424e1
1.157537667e0	-7.593023508e0	-2.848339426e1	8.886530521e0	3.078844230e1
1.167518667e0	-8.725955454e0	-2.953154976e1	8.665298193e0	3.198971902e1
1.177499667e0	-9.011608896e0	-2.930623549e1	7.445158533e0	3.155146461e1
1.187479667e0	-8.409219968e0	-2.906522028e1	6.200854086e0	3.088612313e1
1.197460667e0	-6.541250914e0	-2.689331413e1	4.771537010e0	2.808568806e1
1.207441667e0	-4.525086519e0	-2.292890893e1	3.907041379e0	2.369548998e1
1.217422667e0	-3.424555456e0	-1.953887690e1	4.199775214e0	2.027642479e1
1.227403667e0	-2.290937338e0	-1.598567948e1	4.247616255e0	1.669828094e1
1.237384667e0	-9.174012387e-1	-1.193496705e1	3.689770247e0	1.252595178e1
1.247365667e0	7.816227517e-1	-7.490551053e0	2.725972230e0	8.009382860e0
1.257345667e0	2.260225131e0	-3.760526819e0	2.470437503e0	5.035200200e0
1.267326667e0	3.882052718e0	-1.027224228e0	2.715561262e0	4.847658805e0
1.277307667e0	5.142131492e0	1.199614763e0	2.449576685e0	5.820740313e0
1.287288667e0	5.856541961e0	3.602237429e0	1.340189137e0	7.005091374e0
1.297269667e0	5.850685390e0	5.592595723e0	-1.058883977e-1	8.094372046e0
1.307250667e0	5.391945595e0	6.963692365e0	-1.865498313e0	9.002564779e0
1.317232125e0	4.286580054e0	7.752914450e0	-3.896795011e0	9.678195203e0
1.327212125e0	3.130791926e0	8.946759766e0	-6.338778208e0	1.140291531e1
1.337193125e0	2.129269427e0	1.039053847e1	-7.752799845e0	1.313784546e1
1.347174125e0	1.564109429e0	1.088983338e1	-7.560324708e0	1.334891078e1
1.357155125e0	2.334118149e0	1.090362813e1	-6.330548837e0	1.282236572e1
1.367136125e0	3.830421804e0	1.133118122e1	-4.610339507e0	1.281885445e1
1.377117125e0	4.769603336e0	1.144531887e1	-2.381009603e0	1.262591172e1
1.387098125e0	4.765273181e0	1.120003987e1	-3.324295588e-1	1.217617472e1
1.397079125e0	4.199005720e0	1.121484385e1	8.551925652e-1	1.200565391e1
1.407059125e0	3.194523945e0	1.120408029e1	1.422316496e0	1.173709430e1
1.417040125e0	2.258850450e0	1.147793113e1	1.216292484e0	1.176115112e1
1.427021125e0	1.687735941e0	1.148703057e1	9.368900084e-1	1.164809369e1
1.437002125e0	1.488191959e0	1.114063683e1	5.423700361e-1	1.125267389e1
1.446983125e0	1.725559824e0	1.112666550e1	-2.876976281e-2	1.125971001e1
1.456964125e0	1.855831258e0	1.108489766e1	-3.202987790e-1	1.124373858e1
1.466944125e0	1.448463491e0	1.060230825e1	-4.737548608e-1	1.071127585e1
1.476925125e0	8.718011427e-1	1.026154538e1	-8.942614675e-1	1.033726533e1
1.486906125e0	2.276540324e-1	1.036941715e1	-1.487363555e0	1.047801932e1
1.496887125e0	-7.202983233e-1	1.042349922e1	-1.488888362e0	1.055390706e1
1.506868125e0	-1.579109292e0	1.001211252e1	-1.071828104e0	1.019238925e1
1.516849125e0	-2.266335471e0	9.132182575e0	-7.541722669e-1	9.439375555e0
1.526830125e0	-2.819784080e0	8.826083760e0	-1.554541338e0	9.395080392e0
1.536811125e0	-2.601142654e0	8.816814753e0	-3.036188655e0	9.680940401e0
1.546791125e0	-2.181817916e0	8.239011029e0	-3.957389414e0	9.396944351e0
1.556772125e0	-2.052221251e0	7.205930230e0	-4.524833334e0	8.752780087e0
1.566753125e0	-1.388698369e0	7.073457466e0	-5.651400002e0	9.159727379e0
1.576734125e0	-3.660982651e-1	7.761650190e0	-6.449166039e0	1.009796931e1
1.586715125e0	2.866809435e-2	8.210506437e0	-6.469921315e0	1.045337838e1
1.596696125e0	-6.778794050e-2	8.228249229e0	-5.608180892e0	9.957930181e0
1.606677125e0	1.350012459e-2	8.077896264e0	-4.718111001e0	9.354846964e0
1.616657125e0	-1.674638177e-1	7.867822763e0	-3.739287393e0	8.712803760e0
1.626638125e0	-8.703754453e-1	7.252933073e0	-2.707598231e0	7.790614851e0
1.636619125e0	-1.655592334e0	5.585736939e0	-1.449485730e0	6.003536626e0
1.646600125e0	-1.836888179e0	2.630265881e0	-8.632317558e-2	3.209347048e0
1.656581125e0	-1.534427355e0	-1.635705369e0	1.244380462e0	2.564855180e0
1.666562125e0	-1.561103230e0	-6.426044394e0	2.450418976e0	7.052350176e0
1.676543125e0	-1.612538408e0	-1.174413732e1	3.898598877e0	1.247894686e1
1.686523125e0	-1.013551245e0	-1.713797390e1	5.220341510e0	1.794406311e1
1.696504125e0	-1.021581226e0	-2.157549135e1	5.558846764e0	2.230350269e1
1.706485125e0	-1.295238959e0	-2.557407469e1	5.356999710e0	2.616120001e1
1.716466125e0	-2.255989115e0	-2.903151459e1	4.487259711e0	2.946275320e1
1.726447125e0	-3.709322167e0	-3.147906083e1	3.440921812e0	3.188307207e1
1.736428125e0	-4.731926802e0	-3.161037994e1	2.106083463e0	3.203190345e1
1.746409125e0	-5.369267753e0	-2.972448683e1	1.017377809e0	3.022266056e1
1.756389125e0	-5.408624192e0	-2.793965232e1	9.937458484e-1	2.847568995e1
1.766370125e0	-4.698568729e0	-2.633991259e1	1.417106481e0	2.679320313e1
1.776351125e0	-3.596301920e0	-2.416301993e1	1.592645596e0	2.448104245e1
1.786332125e0	-2.424695612e0	-2.147357438e1	1.801058634e0	2.168495694e1
1.796313125e0	-1.079966552e0	-1.788543751e1	2.543287379e0	1.809761071e1
1.806294125e0	-2.312705353e-1	-1.337738393e1	3.599559989e0	1.385513331e1
1.816275125e0	6.096058533e-2	-8.649404876e0	4.477528190e0	9.739824413e0
1.826255125e0	3.037445806e-1	-4.336865231e0	4.871368570e0	6.529233688e0
1.836236125e0	7.508754605e-1	-6.876617968e-1	4.861035370e0	4.966523691e0
1.846217125e0	1.430738533e0	2.325580922e0	4.449664453e0	5.220618078e0
1.856198125e0	2.234923351e0	4.762613282e0	3.628142933e0	6.390679839e0
1.866179125e0	2.950279316e0	6.973775888e0	2.541020413e0	7.987144854e0
1.876160125e0	3.362465919e0	9.112585632e0	1.403114240e0	9.813975929e0
1.886141125e0	3.396930870e0	1.101817509e1	3.284791799e-1	1.153460967e1
1.896121125e0	3.264323913e0	1.240738699e1	-4.142214346e-1	1.283630172e1
1.906102125e0	2.974550816e0	1.311222790e1	-5.808650342e-1	1.345792991e1
1.916083125e0	2.672395654e0	1.321770700e1	-3.786762106e-1	1.349047340e1
1.926064125e0	2.766185578e0	1.293428076e1	-4.212246448e-2	1.322683544e1
1.936045125e0	3.100872308e0	1.243315333e1	3.191249505e-1	1.281797767e1
1.946026125e0	3.479065247e0	1.187472903e1	6.218277034e-1	1.238950177e1
1.956007125e0	3.551511079e0	1.098857882e1	9.174240428e-1	1.158463475e1
1.965987125e0	3.423037519e0	1.018929952e1	7.736012489e-1	1.077670959e1
1.975968125e0	3.374668474e0	9.816498595e0	1.692605209e-1	1.038174750e1
1.985949125e0	3.154045426e0	9.346395906e0	-5.162837067e-1	9.877735967e0
1.995930125e0	2.718431076e0	8.557690129e0	-1.172689797e0	9.055337057e0
2.005911125e0	2.261525405e0	7.689795511e0	-1.900713169e0	8.237728007e0
2.015892125e0	1.901520085e0	6.983619091e0	-2.836101028e0	7.773685309e0
2.025873125e0	1.757853850e0	6.704773563e0	-3.995528463e0	8.000517882e0
2.035854125e0	1.604459895e0	6.828302425e0	-5.093915352e0	8.668793409e0
2.045834125e0	1.319113140e0	6.962415918e0	-5.850270823e0	9.189176437e0
2.055815125e0	1.024638004e0	7.166781367e0	-6.372024892e0	9.644446040e0
2.065796125e0	9.387865528e-1	7.523688979e0	-6.670708269e0	1.009879027e1
2.075777125e0	9.840602280e-1	7.882365373e0	-6.542999232e0	1.029130202e1
2.085758125e0	9.405383787e-1	8.224815744e0	-6.071069287e0	1.026596750e1
2.095739125e0	8.784358321e-1	8.529788386e0	-5.535561397e0	1.020643813e1
2.105720125e0	8.797112560e-1	8.981908548e0	-5.159267927e0	1.039550954e1
2.115700125e0	8.699816354e-1	9.440259504e0	-4.747650842e0	1.060262025e1
2.125681125e0	9.162217091e-1	9.553977324e0	-4.093999083e0	1.043449919e1
2.135662125e0	1.094064042e0	9.494537453e0	-3.298390084e0	1.011051901e1
2.145643125e0	1.303530018e0	9.383224009e0	-2.514021772e0	9.801244246e0
2.155624125e0	1.370406670e0	9.116607347e0	-1.702208384e0	9.374863057e0
2.165605125e0	1.354436170e0	8.653752866e0	-9.808908910e-1	8.813857438e0
2.175586125e0	1.475696605e0	7.947129133e0	-3.709225103e-1	8.091484749e0
2.185566125e0	1.550303861e0	6.914124348e0	1.279318160e-1	7.086954502e0
2.195547125e0	1.404965469e0	5.695948184e0	2.216316926e-1	5.870849537e0
2.205528125e0	9.973920259e-1	3.954343892e0	4.492474258e-1	4.102858725e0
2.215509125e0	6.155217737e-1	9.316444713e-1	1.141169504e0	1.596588961e0
2.225490125e0	4.897993281e-1	-2.908042538e0	1.810558606e0	3.460453330e0
2.235471125e0	4.335803962e-1	-6.852242680e0	2.125055339e0	7.187286129e0
2.245452125e0	-1.858362079e-2	-1.070411178e1	1.880972677e0	1.086813749e1
2.255432125e0	-7.742114058e-1	-1.440321711e1	1.378430804e0	1.448972525e1
2.265413125e0	-1.849697967e0	-1.790394278e1	1.100717297e0	1.803286245e1
2.275394125e0	-2.788108251e0	-2.074327352e1	1.333489105e0	2.097224683e1
2.285375125e0	-3.735129146e0	-2.317146313e1	2.320531851e0	2.358501137e1
2.295356125e0	-4.937752594e0	-2.525220652e1	3.695697570e0	2.599449009e1
2.305337125e0	-5.989478409e0	-2.608124814e1	4.979291214e0	2.721945439e1
2.315317167e0	-6.331428843e0	-2.620926708e1	5.982738909e0	2.761893982e1
2.325297167e0	-6.133562574e0	-2.613005134e1	6.594524311e0	2.763852246e1
2.335278167e0	-5.834731847e0	-2.532788586e1	6.681587598e0	2.683634682e1
2.345259167e0	-5.426020828e0	-2.377127519e1	6.382266875e0	2.520413769e1
2.355240167e0	-4.921159365e0	-2.170137021e1	5.742584406e0	2.298139582e1
2.365221167e0	-4.292804707e0	-1.904125078e1	4.786333097e0	2.009742242e1
2.375202167e0	-3.781303146e0	-1.579409195e1	3.847412643e0	1.668994243e1
2.385183167e0	-3.285330035e0	-1.192467829e1	2.877545800e0	1.269927618e1
2.395163167e0	-2.898727047e0	-7.630188995e0	2.192765511e0	8.451663930e0
2.405144167e0	-2.312392527e0	-3.568774399e0	2.134199215e0	4.757952942e0
2.415125167e0	-1.177148591e0	-3.515883994e-1	2.675635597e0	2.944200919e0
2.425106167e0	4.626556760e-1	1.725732025e0	3.290976399e0	3.744693172e0
2.435087167e0	2.137406412e0	3.666662636e0	3.022172002e0	5.210225011e0
2.445068167e0	3.494811798e0	5.862637099e0	1.972983001e0	7.104708663e0
2.455049167e0	4.352527291e0	8.341095228e0	5.329690289e-1	9.423503563e0
2.465029167e0	4.471462873e0	1.073456759e1	-7.135038587e-1	1.165049395e1
2.475010167e0	3.975844104e0	1.254563855e1	-1.462716663e0	1.324159821e1
2.484991167e0	3.354469852e0	1.350718744e1	-1.773131455e0	1.402998844e1
2.494972167e0	2.843851805e0	1.363743300e1	-1.796511986e0	1.404615703e1
2.504953167e0	2.462784083e0	1.327346604e1	-1.593218477e0	1.359369528e1
2.514934167e0	1.947253790e0	1.267442465e1	-1.358446775e0	1.289489105e1
2.524915167e0	1.391007873e0	1.198043032e1	-1.070594927e0	1.210833543e1
2.534895167e0	9.091126643e-1	1.137371503e1	-9.217160453e-1	1.144715860e1
2.544876167e0	4.920655628e-1	1.080493532e1	-9.356840202e-1	1.085653077e1
2.554857167e0	1.544960091e-1	1.035450909e1	-1.158242789e0	1.042023291e1
2.564838167e0	-2.957390115e-2	9.993513694e0	-1.551548295e0	1.011328298e1
2.574819167e0	-2.144226605e-1	9.641161648e0	-1.940072240e0	9.836760407e0
2.584800167e0	-3.829614888e-1	9.337078952e0	-2.281672718e0	9.619445579e0
2.594781167e0	-5.669388668e-1	9.129822639e0	-2.524007062e0	9.489240894e0
2.604761167e0	-7.939666624e-1	9.063105324e0	-2.731663325e0	9.499065517e0
2.614742167e0	-1.023784311e0	9.108303131e0	-2.976126348e0	9.636734317e0
2.624723167e0	-1.161184085e0	9.212802815e0	-3.227270692e0	9.830532046e0
2.634704167e0	-1.164212650e0	9.352301593e0	-3.488967214e0	1.004956857e1
2.644685167e0	-1.031606131e0	9.486738437e0	-3.706177534e0	1.023709770e1
2.654666167e0	-8.114091991e-1	9.562509581e0	-3.783615135e0	1.031579943e1
2.664646167e0	-6.328989677e-1	9.557397945e0	-3.756050483e0	1.028845624e1
2.674627167e0	-4.082053806e-1	9.459916089e0	-3.683893503e0	1.016010410e1
2.684608167e0	-1.576580371e-1	9.360722753e0	-3.637235646e0	1.004377766e1
2.694589167e0	9.592035681e-2	9.184754891e0	-3.622606789e0	9.873814009e0
2.704570167e0	3.073812564e-1	8.973490897e0	-3.601886011e0	9.674275423e0
2.714551167e0	5.426432472e-1	8.740886319e0	-3.538491669e0	9.445553379e0
2.724532167e0	7.933785787e-1	8.488798234e0	-3.390833101e0	9.175341637e0
2.734513167e0	9.451202568e-1	8.179271196e0	-3.187752870e0	8.829241075e0
2.744493167e0	1.035732950e0	7.848607058e0	-2.969110858e0	8.455116485e0
2.754474167e0	9.602598676e-1	7.444741627e0	-2.752306627e0	7.995090286e0
2.764455167e0	7.289041092e-1	6.592273718e0	-2.461124643e0	7.074355694e0
2.774436167e0	3.180921860e-1	5.237489639e0	-1.974639371e0	5.606396436e0
2.784417167e0	1.173419237e-1	3.237707387e0	-1.078023668e0	3.414477014e0
2.794398167e0	2.502418265e-2	3.444670755e-1	3.111261056e-1	4.648475335e-1
2.804378167e0	-4.465789028e-1	-3.448653293e0	1.995877335e0	4.009509769e0
2.814359167e0	-1.211179825e0	-8.162642300e0	3.391933547e0	8.921933595e0
2.824340167e0	-2.036562846e0	-1.278317467e1	4.032163900e0	1.355785708e1
2.834321167e0	-2.561019937e0	-1.629618768e1	3.556321583e0	1.687518828e1
2.844302167e0	-3.050338624e0	-1.901438049e1	2.414282452e0	1.940824543e1
2.854283167e0	-3.842522032e0	-2.172201322e1	1.448705419e0	2.210677681e1
2.864264167e0	-4.776299860e0	-2.434210377e1	1.013071481e0	2.482694847e1
2.874244167e0	-5.417348238e0	-2.637992625e1	1.211604479e0	2.695767343e1
2.884225167e0	-6.135233708e0	-2.737219641e1	1.921185295e0	2.811706212e1
2.894206167e0	-7.209649644e0	-2.782248815e1	2.685001667e0	2.886657459e1
2.904187167e0	-8.638774638e0	-2.714889826e1	3.166095952e0	2.866557635e1
2.914168167e0	-9.511085073e0	-2.529759728e1	3.248294941e0	2.722095861e1
2.924149167e0	-9.122231784e0	-2.303532124e1	3.215901366e0	2.498365784e1
2.934130167e0	-7.577206205e0	-2.047544765e1	3.107470599e0	2.205253690e1
2.944110167e0	-5.325664482e0	-1.769119418e1	3.071245344e0	1.872895089e1
2.954091167e0	-3.039592611e0	-1.464894517e1	2.964930099e0	1.525193524e1
2.964072167e0	-1.216922522e0	-1.136048512e1	2.690082312e0	1.173789017e1
2.974053167e0	-2.973236069e-2	-7.865421896e0	2.428942591e0	8.231980790e0
2.984034167e0	6.591152515e-1	-4.485315512e0	2.355775212e0	5.109027795e0
2.994015167e0	1.161498665e0	-1.449669186e0	2.287159306e0	2.946475452e0
3.003996167e0	1.353463486e0	1.327886887e0	1.922709371e0	2.700362627e0
3.013976167e0	1.292814411e0	3.920240006e0	1.071093986e0	4.264609377e0
3.023957167e0	1.199602484e0	6.324053750e0	-1.867030576e-2	6.436850980e0
3.033938167e0	1.170014111e0	8.432327580e0	-9.401833065e-1	8.564871633e0
3.043919167e0	1.262219001e0	1.000016666e1	-1.526900526e0	1.019450613e1
3.053900167e0	1.480504771e0	1.106241746e1	-1.699342517e0	1.128967402e1
3.063881167e0	1.920702461e0	1.162921965e1	-1.503775958e0	1.188230574e1
3.073862167e0	2.622493177e0	1.171718165e1	-1.024399438e0	1.205069336e1
3.083842167e0	3.443241988e0	1.148134941e1	-5.303168781e-1	1.199827220e1
3.093823167e0	4.246495929e0	1.106989956e1	-1.337110578e-1	1.185720382e1
3.103804167e0	4.894557165e0	1.070501927e1	1.391210479e-1	1.177172383e1
3.113785167e0	5.155008230e0	1.043961766e1	3.520859975e-1	1.164833427e1
3.123766167e0	4.982541096e0	1.022897639e1	2.975507712e-1	1.138183686e1
3.133747167e0	4.556240191e0	1.015790231e1	-1.147206169e-1	1.113352886e1
3.143728167e0	3.975469297e0	9.990951444e0	-6.329189944e-1	1.077144620e1
3.153708167e0	3.398857820e0	9.637096079e0	-1.151862892e0	1.028361043e1
3.163689167e0	2.814830904e0	9.139923120e0	-1.648121347e0	9.704523256e0
3.173670167e0	2.298451303e0	8.879750674e0	-2.251577391e0	9.444704928e0
3.183651167e0	1.877180027e0	8.944855912e0	-2.772505249e0	9.550970500e0
3.193632167e0	1.533538870e0	9.112993768e0	-3.015822510e0	9.720780951e0
3.203613167e0	1.161808567e0	9.256499643e0	-2.913211477e0	9.773401961e0
3.213594167e0	9.448454377e-1	9.511456372e0	-2.621319641e0	9.911198306e0
3.223574167e0	8.469820511e-1	9.850640488e0	-2.291755949e0	1.014912025e1
3.233555167e0	8.289609325e-1	1.018790906e1	-1.871452240e0	1.039148693e1
3.243536167e0	9.400784951e-1	1.045695231e1	-1.491181494e0	1.060449063e1
3.253517167e0	1.149417294e0	1.062805354e1	-1.195141059e0	1.075662792e1
3.263498167e0	1.367096707e0	1.062018318e1	-9.524061799e-1	1.075008473e1
3.273479167e0	1.436091952e0	1.046143596e1	-8.719214492e-1	1.059548250e1
3.283460167e0	1.393913646e0	1.037953167e1	-9.675990003e-1	1.051731528e1
3.293440167e0	1.351966306e0	1.031434925e1	-1.031079297e0	1.045355144e1
3.303421167e0	1.260831164e0	1.020619447e1	-9.952510679e-1	1.033182585e1
3.313402167e0	1.248782684e0	1.003231582e1	-9.153794177e-1	1.015109542e1
3.323383875e0	1.313322935e0	9.819426881e0	-8.604148597e-1	9.944157839e0
3.333364875e0	1.414499061e0	9.591773726e0	-9.081082588e-1	9.737945954e0
3.343345875e0	1.505042026e0	9.213987461e0	-9.892584027e-1	9.388362404e0
3.353326875e0	1.391961846e0	8.578089895e0	-9.776503640e-1	8.745112021e0
3.363306875e0	9.556168860e-1	7.497098181e0	-7.248535967e-1	7.592436862e0
3.373287875e0	3.341183808e-1	5.956445149e0	-1.845948440e-1	5.968663935e0
3.383268875e0	-1.604014045e-1	3.861766680e0	7.594749606e-1	3.939006565e0
3.393249875e0	-6.572896045e-1	7.519998801e-1	2.274557533e0	2.484179023e0
3.403230875e0	-1.111225620e0	-3.488451197e0	4.173627343e0	5.551871696e0
3.413211875e0	-1.613328367e0	-8.904455745e0	6.116503322e0	1.092262667e1
3.423191875e0	-2.472444853e0	-1.499811750e1	7.311365469e0	1.686750062e1
3.433172875e0	-3.189796179e0	-2.154606114e1	7.867316394e0	2.315819979e1
3.443153875e0	-3.383525836e0	-2.694959709e1	6.941696894e0	2.803419672e1
3.453134875e0	-3.618919828e0	-2.977601717e1	4.553273314e0	3.033875537e1
3.463115875e0	-4.157182633e0	-3.060324148e1	1.685136853e0	3.093024802e1
3.473096875e0	-4.853072632e0	-3.037869905e1	-6.555904037e-1	3.077088670e1
3.483077875e0	-5.589379170e0	-2.962749088e1	-1.294516535e0	3.017789171e1
3.493057875e0	-6.474259365e0	-2.942092044e1	-3.473246098e-4	3.012485011e1
3.503038875e0	-7.637024975e0	-2.936788386e1	2.286056668e0	3.043062286e1
3.513019875e0	-8.845752039e0	-2.838102355e1	4.091159090e0	3.000778914e1
3.523000875e0	-9.255783944e0	-2.624444159e1	5.091912680e0	2.829077280e1
3.532981875e0	-8.654569137e0	-2.294371408e1	5.922355297e0	2.522676902e1
3.542962875e0	-7.374350506e0	-1.853542920e1	6.578707008e0	2.100529855e1
3.552943875e0	-5.605690563e0	-1.380082642e1	6.770624905e0	1.636239403e1
3.562923875e0	-3.551800809e0	-9.385378708e0	6.581280953e0	1.200057838e1
3.572904875e0	-1.524969922e0	-5.357329493e0	6.154819542e0	8.301103309e0
3.582885875e0	2.706772605e-1	-1.787485054e0	5.549192426e0	5.836257841e0
3.592866875e0	1.769884643e0	1.404051549e0	4.664108164e0	5.182447044e0
3.602847875e0	2.901679598e0	4.481104932e0	3.555627519e0	6.414244535e0
3.612828875e0	3.595809292e0	7.297947863e0	2.337275792e0	8.464794481e0
3.622809875e0	4.012002701e0	9.626771066e0	1.135918120e0	1.049100552e1
3.632789875e0	4.335430032e0	1.141763698e1	2.111083125e-1	1.221486613e1
3.642770875e0	4.551533183e0	1.247384995e1	-4.827291673e-1	1.328707697e1
3.652751875e0	4.645869529e0	1.264382968e1	-7.992892367e-1	1.349405039e1
3.662732875e0	4.660388457e0	1.220968093e1	-8.655335853e-1	1.309750653e1
3.672713875e0	4.579700682e0	1.174835433e1	-7.308371986e-1	1.263058236e1
3.682694875e0	4.370834923e0	1.137082534e1	-4.476132021e-1	1.219016917e1
3.692675875e0	4.138194970e0	1.087787933e1	-2.254927553e-2	1.163844598e1
3.702655875e0	3.875109150e0	1.033343807e1	3.721659207e-1	1.104241462e1
3.712636875e0	3.557438402e0	9.854188578e0	5.259610679e-1	1.048985393e1
3.722617875e0	3.169459856e0	9.410476127e0	4.636448787e-1	9.940699336e0
3.732598875e0	2.639446594e0	8.999538488e0	2.568586819e-1	9.382129167e0
3.742579875e0	2.066228841e0	8.846225663e0	-2.211592376e-2	9.084354640e0
3.752560875e0	1.744307460e0	8.900560915e0	-2.822760898e-1	9.074264317e0
3.762540875e0	1.668917846e0	9.047755798e0	-5.863155162e-1	9.219052969e0
3.772521875e0	1.745176063e0	9.282212774e0	-9.967900550e-1	9.497299820e0
3.782502875e0	1.963535070e0	9.482491604e0	-1.442442028e0	9.790493144e0
3.792483875e0	2.175192874e0	9.611251971e0	-1.854267858e0	1.002725973e1
3.802464875e0	2.153497073e0	9.647274912e0	-2.078013904e0	1.010077248e1
3.812445875e0	2.109167577e0	9.640537750e0	-1.992706536e0	1.006774231e1
3.822426875e0	2.140529118e0	9.734515370e0	-1.685834134e0	1.010864438e1
3.832406875e0	2.267171623e0	9.911402414e0	-1.398280932e0	1.026309673e1
3.842387875e0	2.465107182e0	1.007218447e1	-1.092959211e0	1.042689855e1
3.852368875e0	2.728960741e0	1.024753311e1	-7.898085612e-1	1.063404717e1
3.862349875e0	2.991368285e0	1.047255502e1	-6.012247102e-1	1.090798625e1
3.872330875e0	3.131726896e0	1.070275289e1	-5.231720191e-1	1.116379602e1
3.882311875e0	3.171691738e0	1.087106733e1	-4.179361707e-1	1.133200794e1
3.892292875e0	3.065043787e0	1.097014372e1	-3.795790207e-1	1.139660594e1
3.902272875e0	2.887761471e0	1.108145716e1	-4.897750622e-1	1.146201286e1
3.912253875e0	2.673340857e0	1.109595709e1	-5.578518552e-1	1.142708247e1
3.922234875e0	2.552814247e0	1.100010953e1	-6.192850417e-1	1.130941131e1
3.932215875e0	2.646874897e0	1.077112789e1	-6.837769067e-1	1.111263666e1
3.942196875e0	2.885976023e0	1.047366365e1	-7.988167816e-1	1.089332806e1
3.952177875e0	3.187499978e0	1.008385435e1	-8.358717567e-1	1.060862650e1
3.962157875e0	3.339925780e0	9.406924528e0	-8.647657728e-1	1.001963837e1
3.972138875e0	3.402360302e0	8.216905630e0	-8.750130183e-1	8.936399809e0
3.982119875e0	3.357781422e0	6.414670390e0	-4.005805017e-1	7.251424483e0
3.992100875e0	3.220370978e0	3.604704369e0	7.148992968e-1	4.886283232e0
4.002081875e0	2.859770265e0	-4.789390022e-1	2.431664032e0	3.784264591e0
4.012062875e0	2.364960750e0	-5.454616637e0	3.745840368e0	7.026891351e0
4.022043875e0	1.097817662e0	-1.215695191e1	5.242289618e0	1.328451293e1
4.032023875e0	-7.709922212e-1	-2.046087639e1	6.553538838e0	2.149862235e1
4.042004875e0	-2.601699893e0	-2.723410623e1	5.724703621e0	2.795062819e1
4.051985875e0	-4.547833357e0	-2.964897121e1	2.484208573e0	3.009843143e1
4.061966875e0	-6.504430997e0	-3.076832475e1	-3.738417327e-1	3.145055148e1
4.071947875e0	-8.056593103e0	-3.193239078e1	-1.912904029e0	3.298856583e1
4.081928875e0	-8.485327327e0	-3.080635036e1	-2.278711980e0	3.203473944e1
4.091909875e0	-8.340484779e0	-2.929085264e1	-1.000487980e0	3.047160499e1
4.101889875e0	-8.206647860e0	-2.885799730e1	1.288205781e0	3.002986099e1
4.111870875e0	-7.970512733e0	-2.808875398e1	3.080936519e0	2.935982533e1
4.121851875e0	-7.675057020e0	-2.631039818e1	3.820433298e0	2.767199421e1
4.131832875e0	-7.219216858e0	-2.361239465e1	3.846269220e0	2.498911883e1
4.141813875e0	-6.437619542e0	-2.023782148e1	3.970628095e0	2.160505152e1
4.151794875e0	-5.276053196e0	-1.656711024e1	4.464505271e0	1.795098009e1
4.161775875e0	-4.480163530e0	-1.259441837e1	4.799276494e0	1.420296779e1
4.171755875e0	-3.871216658e0	-8.549761890e0	4.831069559e0	1.055575577e1
4.181736875e0	-3.303607262e0	-4.882191766e0	4.874431341e0	7.649163241e0
4.191717875e0	-2.821157007e0	-1.478115891e0	4.641236195e0	5.628927683e0
4.201698875e0	-2.416739160e0	1.738400602e0	4.043091761e0	5.020881976e0
4.211679875e0	-1.991019176e0	4.668014104e0	3.216227641e0	6.008213817e0
4.221660875e0	-1.638468617e0	7.294706166e0	2.245996078e0	7.806523928e0
4.231640875e0	-1.361778811e0	9.437061077e0	1.292665014e0	9.622034408e0
4.241621875e0	-1.089100926e0	1.101471470e1	5.319286631e-1	1.108120160e1
4.251602875e0	-1.033912419e0	1.197892174e1	9.663152441e-2	1.202384624e1
4.261583875e0	-8.574147995e-1	1.220903072e1	-1.195622577e-1	1.223968490e1
4.271564875e0	-3.166692661e-1	1.193496822e1	-3.216659311e-1	1.194350094e1
4.281545875e0	5.298496856e-1	1.135965716e1	-6.079000012e-1	1.138824367e1
4.291526875e0	1.382816508e0	1.077116531e1	-8.678842391e-1	1.089419142e1
4.301506875e0	2.038320665e0	1.034850517e1	-9.958680222e-1	1.059424672e1
4.311487875e0	2.324315730e0	1.004787526e1	-1.000077360e0	1.036158268e1
4.321468625e0	2.476138539e0	9.848622029e0	-8.246520462e-1	1.018855578e1
4.331449625e0	2.007625561e0	9.837881863e0	-6.015323468e-1	1.005864410e1
4.341430625e0	1.377266623e0	1.006793705e1	-4.523353404e-1	1.017176618e1
4.351411625e0	1.037124295e0	1.026627695e1	-1.886101635e-1	1.032025402e1
4.361391625e0	9.865585971e-1	1.043177654e1	1.696844258e-1	1.047969715e1
4.371372625e0	1.326951040e0	1.060618261e1	4.837746495e-1	1.069981058e1
4.381353625e0	1.897375579e0	1.063183552e1	7.372087634e-1	1.082494514e1
4.391334625e0	2.336259107e0	1.039788140e1	9.880566537e-1	1.070281739e1
4.401315625e0	2.503392119e0	9.951671019e0	1.115440586e0	1.032215752e1
4.411296625e0	2.362239456e0	9.534321908e0	1.025604549e0	9.875997883e0
4.421277625e0	2.073005179e0	9.266413597e0	7.753928357e-1	9.527066992e0
4.431257625e0	1.616774131e0	9.157115688e0	4.763270509e-1	9.310940542e0
4.441238625e0	1.099435002e0	9.246781570e0	2.035766602e-1	9.314138188e0
4.451219625e0	5.021737906e-1	9.683789020e0	1.371084545e-1	9.697770209e0
4.461200625e0	-2.142642009e-1	1.035039265e1	3.051691085e-1	1.035710700e1
4.471181625e0	-8.195124167e-1	1.096742593e1	6.016948628e-1	1.101444819e1
4.481162625e0	-1.209933637e0	1.135947239e1	8.516200626e-1	1.145542706e1
4.491143625e0	-1.129603711e0	1.169669886e1	8.850959569e-1	1.178440340e1
4.501123625e0	-6.879687756e-1	1.196660516e1	8.353326434e-1	1.201543677e1
4.511104625e0	-1.605408606e-1	1.209174844e1	8.086383498e-1	1.211982053e1
4.521085625e0	4.588552782e-1	1.196643442e1	6.586794877e-1	1.199332980e1
4.531066625e0	1.214635091e0	1.160667629e1	4.917800359e-1	1.168041611e1
4.541047625e0	1.725169815e0	1.119526152e1	1.387327196e-1	1.132825398e1
4.551028625e0	2.136455070e0	1.069700858e1	-4.926752812e-1	1.091939384e1
4.561008625e0	2.340208609e0	1.001951860e1	-1.196571361e0	1.035852848e1
4.570989625e0	2.397713344e0	9.018708585e0	-1.915771358e0	9.526610820e0
4.580970625e0	2.436352037e0	7.645705166e0	-2.097088106e0	8.293997665e0
4.590951625e0	2.477772835e0	5.571721748e0	-1.355075271e0	6.246572696e0
4.600932625e0	2.623569649e0	2.681008603e0	-2.675849605e-1	3.760655069e0
4.610913625e0	2.759898067e0	-7.670839423e-1	6.095926970e-1	2.928661532e0
4.620894625e0	2.608456936e0	-4.500991312e0	1.148863197e0	5.327556384e0
4.630874625e0	1.831480967e0	-9.163248248e0	2.142203468e0	9.586890876e0
4.640855625e0	3.522921118e-1	-1.558148018e1	3.739806041e0	1.602787520e1
4.650836625e0	-1.037272376e0	-2.305853703e1	5.054070670e0	2.362870488e1
4.660817625e0	-2.339675927e0	-2.946251052e1	5.345047417e0	3.003469896e1
4.670798625e0	-4.607670838e0	-3.390230604e1	4.074391907e0	3.445573472e1
4.680779625e0	-7.375766117e0	-3.577965286e1	1.356387970e0	3.655715078e1
4.690760625e0	-9.463578200e0	-3.474292983e1	-1.391252140e0	3.603562221e1
4.700740625e0	-1.018403469e1	-3.279848270e1	-2.578767406e0	3.443987618e1
4.710721625e0	-9.567012522e0	-3.159637937e1	-1.731328395e0	3.305837890e1
4.720702625e0	-8.392294618e0	-3.037658235e1	5.957383043e-1	3.152018827e1
4.730683625e0	-7.458705947e0	-2.835386908e1	3.615372030e0	2.954056704e1
4.740664625e0	-6.784609691e0	-2.543158506e1	6.530655760e0	2.711910603e1
4.750645625e0	-5.922278699e0	-2.097528168e1	8.718110830e0	2.347426853e1
4.760625625e0	-4.844397118e0	-1.575248901e1	1.018637124e1	1.937450006e1
4.770606625e0	-3.163840681e0	-1.139273486e1	1.064339195e1	1.590867963e1
4.780587625e0	-1.371051326e0	-8.019196651e0	9.960427809e0	1.286069278e1
4.790568625e0	-5.544037521e-3	-5.698782914e0	8.432607661e0	1.017767308e1
4.800549625e0	4.336727822e-1	-3.079218022e0	6.312510177e0	7.036862969e0
4.810530625e0	8.681106725e-1	1.804626167e-1	4.269871343e0	4.360961383e0
4.820511625e0	1.493755146e0	2.768232688e0	2.118446816e0	3.792391536e0
4.830491625e0	7.766220666e-1	5.100558958e0	1.419277114e-1	5.161297026e0
4.840472625e0	-4.512448347e-1	7.192144834e0	-1.460705221e0	7.352838157e0
4.850453625e0	-1.140745142e0	8.973405527e0	-2.675192378e0	9.432918981e0
4.860434625e0	-1.395966750e0	1.055698999e1	-3.311324417e0	1.115184425e1
4.870415625e0	-1.192094221e0	1.188580249e1	-3.395255935e0	1.241858093e1
4.880396625e0	-5.687621748e-1	1.265645966e1	-2.989902973e0	1.301725706e1
4.890376625e0	1.037212734e-1	1.272425228e1	-2.115691169e0	1.289936058e1
4.900357625e0	8.237531099e-1	1.230106590e1	-8.558259648e-1	1.235828586e1
4.910338625e0	1.162417993e0	1.176910610e1	3.776691739e-1	1.183240077e1
4.920319625e0	1.096987650e0	1.141166346e1	9.503964188e-1	1.150359502e1
4.930300625e0	7.822919655e-1	1.105071835e1	9.720095551e-1	1.112093339e1
4.940281625e0	4.710481846e-1	1.056424170e1	5.311417010e-1	1.058806879e1
4.950262625e0	5.096617350e-1	1.014134651e1	-5.409142256e-2	1.015428924e1
4.960242625e0	1.067598667e0	9.801776476e0	-6.903393099e-1	9.883883718e0
4.970223625e0	1.786639839e0	9.337467207e0	-1.260652824e0	9.590079317e0
4.980204625e0	2.411710701e0	8.971638499e0	-1.933593086e0	9.489226949e0
4.990185625e0	2.644146586e0	8.585149823e0	-2.659208429e0	9.368441606e0
5.000166625e0	2.677052085e0	8.223552745e0	-3.382195887e0	9.286155105e0
5.010147625e0	2.706929895e0	7.968605372e0	-4.198345862e0	9.404905582e0
5.020127625e0	2.993138529e0	7.961104563e0	-5.142239081e0	9.938847362e0
5.030108625e0	3.606405324e0	8.138254148e0	-6.746684650e0	1.116938198e1
5.040089625e0	4.172798207e0	8.621074532e0	-7.091848129e0	1.191761221e1
5.050070625e0	4.650540869e0	8.942190167e0	-7.123205577e0	1.234221832e1
5.060051625e0	4.886765458e0	9.105342686e0	-6.549059286e0	1.223429277e1
5.070032625e0	4.769032940e0	9.401205366e0	-5.415500518e0	1.185132834e1
5.080013625e0	4.517497417e0	9.833412251e0	-4.212244109e0	1.161235462e1
5.089993625e0	4.308000744e0	1.051624074e1	-3.116558926e0	1.178402008e1
5.099974625e0	4.021272876e0	1.108118234e1	-2.218237152e0	1.199515793e1
5.109955625e0	3.959340045e0	1.138868508e1	-1.494595098e0	1.214958172e1
5.119936625e0	4.154178626e0	1.151164617e1	-1.064442340e0	1.228447130e1
5.129917625e0	4.352027939e0	1.151045451e1	-9.852068670e-1	1.234509388e1
5.139898625e0	4.400522991e0	1.138577082e1	-1.025213517e0	1.224954867e1
5.149878625e0	4.139433995e0	1.090466426e1	-1.167069453e0	1.172214432e1
5.159859625e0	3.895528504e0	1.029276951e1	-1.503733127e0	1.110754068e1
5.169840625e0	3.879025907e0	9.694252027e0	-1.878205628e0	1.060910084e1
5.179821625e0	3.926723399e0	9.243167991e0	-2.195310366e0	1.027981998e1
5.189802625e0	3.023698125e0	9.483581525e0	-2.923450536e0	1.037437381e1
5.199783625e0	3.318189048e0	7.127161803e0	-2.933016581e0	8.391030937e0
5.209764625e0	3.436379403e0	4.078597224e0	-2.066592538e0	5.719655884e0
5.219744625e0	2.844990258e0	1.126579531e0	-4.711066568e-1	3.095980053e0
5.229725625e0	2.567718507e0	-3.341358055e0	1.301959748e0	4.410549985e0
5.239706625e0	1.945360461e0	-8.643398616e0	2.830450571e0	9.300764345e0
5.249687625e0	5.852098078e-1	-1.417001143e1	4.364403863e0	1.483845395e1
5.259668625e0	-1.149502956e0	-1.881379994e1	4.494035465e0	1.937722323e1
5.269649625e0	-3.693425634e0	-2.170462126e1	2.786197089e0	2.219222546e1
5.279629625e0	-7.656181038e0	-2.280659454e1	9.737150417e-1	2.407708420e1
5.289610625e0	-1.197056840e1	-2.358468820e1	1.160564572e0	2.647411822e1
5.299591625e0	-1.475413308e1	-2.484413635e1	2.998986037e0	2.905011999e1
5.309572625e0	-1.515115668e1	-2.646350168e1	5.196626957e0	3.093346734e1
5.319553292e0	-1.408613079e1	-2.773744625e1	6.876156038e0	3.186010870e1
5.329534292e0	-1.236329898e1	-2.756082291e1	7.495457452e0	3.112285340e1
5.339515292e0	-1.123133767e1	-2.696142250e1	7.912853340e0	3.026011396e1
5.349495292e0	-1.068997321e1	-2.623546962e1	8.009276850e0	2.944017509e1
5.359476292e0	-9.192134662e0	-2.513101011e1	7.066027409e0	2.767655600e1
5.369457292e0	-6.905353525e0	-2.348744199e1	5.086600485e0	2.500434648e1
5.379438292e0	-4.682950524e0	-2.103285570e1	2.564856880e0	2.169998929e1
5.389419292e0	-3.466707156e0	-1.809981164e1	2.730225787e-1	1.843083778e1
5.399400292e0	-3.076208460e0	-1.440514669e1	-1.194346422e0	1.477828721e1
5.409380292e0	-2.917809435e0	-1.021231767e1	-1.701852581e0	1.075645603e1
5.419361292e0	-2.554831536e0	-5.702457304e0	-1.339369065e0	6.390547158e0
5.429342292e0	-1.752198862e0	-1.470736120e0	-2.439785814e-1	2.300606688e0
5.439323292e0	-8.729986525e-1	2.027544247e0	1.436271461e0	2.633616910e0
5.449304292e0	4.170453474e-1	5.771677812e0	1.980716674e0	6.116324888e0
5.459285292e0	1.829642310e0	8.844300175e0	1.837667467e0	9.216629443e0
5.469266292e0	2.942082689e0	1.090468999e1	1.222216444e0	1.136054256e1
5.479246292e0	4.031051760e0	1.195901080e1	3.166354984e-1	1.262408712e1
5.489227292e0	5.241927676e0	1.197684831e1	-6.321214342e-1	1.308901367e1
5.499208292e0	6.221139831e0	1.123456183e1	-1.247697733e0	1.290250789e1
5.509189292e0	6.820251394e0	1.037063571e1	-1.645000103e0	1.252086018e1
5.519170292e0	6.962224714e0	9.631315522e0	-2.008816785e0	1.205280700e1
5.529151292e0	6.546353195e0	9.182362795e0	-2.248188491e0	1.149890769e1
5.539131292e0	6.002773808e0	9.051310320e0	-2.461966057e0	1.113646213e1
5.549112292e0	5.419469608e0	8.770874934e0	-2.743693094e0	1.066896198e1
5.559093292e0	4.886636527e0	8.228381960e0	-3.151477329e0	1.007557917e1
5.569074292e0	4.651544836e0	7.858529198e0	-3.497662316e0	9.778905470e0
5.579055292e0	4.578450255e0	7.873905621e0	-3.506681646e0	9.759990401e0
5.589036292e0	4.417024126e0	8.357289677e0	-3.335966923e0	1.002412431e1
5.599016292e0	4.207216965e0	8.978525934e0	-3.016422434e0	1.036404394e1
5.608997292e0	3.920410453e0	9.487797368e0	-2.459520752e0	1.055638003e1
5.618978292e0	3.641858162e0	9.808645785e0	-1.647136237e0	1.059177609e1
5.628959292e0	3.471248689e0	1.010668071e1	-7.493342075e-1	1.071242569e1
5.638940292e0	3.432548892e0	1.022224040e1	1.307501008e-1	1.078395504e1
5.648921292e0	3.413608299e0	1.011695192e1	8.075875320e-1	1.070783057e1
5.658902292e0	3.425254198e0	9.986452596e0	1.050666812e0	1.060968909e1
5.668882292e0	3.770193729e0	1.021556872e1	7.550637480e-1	1.091523368e1
5.678863292e0	4.075607835e0	1.077545132e1	-1.030765448e-1	1.152091815e1
5.688844292e0	3.911993678e0	1.132152396e1	-9.086883757e-1	1.201275630e1
5.698825292e0	3.380440845e0	1.174420047e1	-1.431475575e0	1.230458237e1
5.708806292e0	2.746146878e0	1.200514767e1	-1.416984420e0	1.239648087e1
5.718787292e0	2.101285238e0	1.203190453e1	-8.039595540e-1	1.224044432e1
5.728767292e0	1.704229766e0	1.195752911e1	-3.251367652e-1	1.208274040e1
5.738748292e0	1.688735230e0	1.170808689e1	-1.472201724e-1	1.183016480e1
5.748729292e0	1.704806302e0	1.126710509e1	-1.153465614e-2	1.139535672e1
5.758710292e0	1.877077847e0	1.061506336e1	-1.004668593e-1	1.078021730e1
5.768691292e0	2.175692811e0	1.001092085e1	-5.703808303e-1	1.026048293e1
5.778672292e0	2.428933090e0	9.742154757e0	-1.161714281e0	1.010736738e1
5.788653292e0	2.422763985e0	9.874065603e0	-1.769462328e0	1.031978458e1
5.798633292e0	2.374672975e0	9.885355407e0	-2.073150190e0	1.037580238e1
5.808614292e0	2.098021030e0	9.558435241e0	-1.939304354e0	9.976285775e0
5.818595292e0	1.804711829e0	8.924986489e0	-1.408508297e0	9.213916878e0
5.828576292e0	1.561232892e0	7.813972830e0	-5.580915910e-1	7.987933760e0
5.838557292e0	1.191078998e0	6.080724794e0	5.822791833e-1	6.223578733e0
5.848538292e0	9.318897620e-1	3.462560896e0	2.227484962e0	4.221307350e0
5.858518292e0	1.183846284e0	2.026639098e-1	3.717229649e0	3.906451196e0
5.868499292e0	1.164692560e0	-4.607713523e0	5.258125048e0	7.087694384e0
5.878480292e0	5.375488606e-1	-1.189920080e1	7.253641756e0	1.394615564e1
5.888461292e0	-8.520957336e-1	-2.108157002e1	8.951771999e0	2.291926883e1
5.898442292e0	-3.677302814e0	-2.913638791e1	9.256474500e0	3.079178424e1
5.908423292e0	-7.691816894e0	-3.332828488e1	8.023097913e0	3.513273004e1
5.918403292e0	-1.175419804e1	-3.390420522e1	5.344527014e0	3.627975016e1
5.928384292e0	-1.415619329e1	-3.271678307e1	2.614079326e0	3.574379825e1
5.938365292e0	-1.468285786e1	-3.051955145e1	1.419036208e0	3.389753678e1
5.948346292e0	-1.380411490e1	-2.912984137e1	2.085387828e0	3.230247806e1
5.958327292e0	-1.210166883e1	-2.891751728e1	4.098128094e0	3.161436141e1
5.968308292e0	-1.053661010e1	-2.846889082e1	6.362390435e0	3.101576872e1
5.978289292e0	-8.789180228e0	-2.603100652e1	7.484217934e0	2.847589345e1
5.988269292e0	-6.818849232e0	-2.224089513e1	7.339556065e0	2.439309747e1
5.998250292e0	-4.491778147e0	-1.801217708e1	6.580245996e0	1.969553836e1
6.008231292e0	-1.805054475e0	-1.396283055e1	5.724096680e0	1.519816244e1
6.018212292e0	5.587274757e-1	-1.039300014e1	5.137785841e0	1.160704406e1
6.028193292e0	2.140220093e0	-7.418816827e0	4.548170156e0	8.961318928e0
6.038174292e0	2.969619566e0	-4.668127540e0	3.621387353e0	6.612450488e0
6.048154292e0	2.883626320e0	-1.874896835e0	2.333205691e0	4.156246827e0
6.058135292e0	2.245489270e0	1.040142481e0	7.547471943e-1	2.587230521e0
6.068116292e0	1.344837088e0	4.241611750e0	-9.180385852e-1	4.543418523e0
6.078097292e0	5.586871299e-1	7.187040800e0	-2.234014694e0	7.546953585e0
6.088078292e0	2.620029160e-1	9.515567549e0	-3.107766176e0	1.001363480e1
6.098059292e0	7.844735616e-1	1.115187986e1	-3.544550554e0	1.172790100e1
6.108039292e0	1.974305348e0	1.193237790e1	-3.557276434e0	1.260689254e1
6.118020292e0	3.475509555e0	1.184625309e1	-3.116716509e0	1.273290229e1
6.128001292e0	4.656526372e0	1.110408004e1	-2.575911626e0	1.231337290e1
6.137982292e0	5.502522290e0	9.959249010e0	-2.173501567e0	1.158397606e1
6.147963292e0	6.158853536e0	8.961551467e0	-2.116528344e0	1.107793184e1
6.157944292e0	6.004726778e0	8.494652467e0	-2.387934022e0	1.067324192e1
6.167925292e0	5.092821922e0	8.533707190e0	-2.728212005e0	1.030553901e1
6.177905292e0	3.847623728e0	8.856740127e0	-2.783278159e0	1.004951199e1
6.187886292e0	2.780039386e0	9.170987037e0	-2.571562175e0	9.922124483e0
6.197867292e0	2.181384198e0	9.321631193e0	-2.150197197e0	9.811961736e0
6.207848292e0	2.070813058e0	9.282491686e0	-1.680050360e0	9.657923578e0
6.217829292e0	2.405495988e0	9.105830344e0	-1.341521571e0	9.513266386e0
6.227810292e0	2.700002114e0	8.944482275e0	-1.134363637e0	9.411724361e0
6.237790292e0	2.835786155e0	8.836838543e0	-1.052564452e0	9.340197562e0
6.247771292e0	2.902840563e0	8.830196691e0	-1.150495228e0	9.366028839e0
6.257752292e0	2.885413229e0	8.953838990e0	-1.295388063e0	9.496045092e0
6.267733292e0	2.852868796e0	9.137591835e0	-1.431584918e0	9.679043356e0
6.277714292e0	2.841542739e0	9.402368962e0	-1.554850071e0	9.944670230e0
6.287695292e0	2.829353926e0	9.647068505e0	-1.513658191e0	1.016672688e1
6.297675292e0	2.806070898e0	9.682834754e0	-1.268557090e0	1.016073619e1
6.307656292e0	2.755471725e0	9.510861125e0	-1.005175255e0	9.952862958e0
6.317637292e0	2.605275466e0	9.292968142e0	-8.457325011e-1	9.688239293e0
6.327619125e0	2.372918810e0	9.230754937e0	-8.953279996e-1	9.572836184e0
6.337600125e0	2.113973549e0	9.331917030e0	-1.086599925e0	9.629862877e0
6.347581125e0	1.827412181e0	9.428608342e0	-1.295344501e0	9.691027187e0
6.357562125e0	1.468758153e0	9.451004933e0	-1.463668152e0	9.675798117e0
6.367542125e0	1.182816297e0	9.476586501e0	-1.486991379e0	9.665189572e0
6.377523125e0	1.031501612e0	9.516983745e0	-1.443233302e0	9.680903756e0
6.387504125e0	8.706325766e-1	9.516759796e0	-1.346690948e0	9.650921956e0
6.397485125e0	8.236048830e-1	9.317904178e0	-1.253985098e0	9.437909827e0
6.407466125e0	8.769617490e-1	8.995260081e0	-1.248184806e0	9.123690653e0
6.417447125e0	6.611152916e-1	8.630987901e0	-1.135237796e0	8.730394632e0
6.427427125e0	2.242385276e-1	8.079221828e0	-8.528418383e-1	8.127204160e0
6.437408125e0	-2.474299005e-1	7.214320400e0	-3.486855492e-1	7.226978760e0
6.447389125e0	-7.652815381e-1	5.799061493e0	6.447476193e-1	5.884765885e0
6.457370125e0	-1.212121080e0	3.638071505e0	2.120709103e0	4.382032507e0
6.467351125e0	-1.502436799e0	1.406290448e-1	4.217362761e0	4.479200992e0
6.477332125e0	-1.475270928e0	-4.956825042e0	6.501901492e0	8.307903575e0
6.487312125e0	-1.273548127e0	-1.113394060e1	8.256065603e0	1.391938136e1
6.497293125e0	-1.234102811e0	-1.630407207e1	8.573947143e0	1.846234940e1
6.507274125e0	-1.657688853e0	-1.960541237e1	7.566484750e0	2.108012851e1
6.517255125e0	-2.835216052e0	-2.210998299e1	5.846432126e0	2.304496836e1
6.527236125e0	-4.243549224e0	-2.402209735e1	4.204232254e0	2.475367529e1
6.537217125e0	-5.487185043e0	-2.505045419e1	3.061813200e0	2.582652038e1
6.547198125e0	-6.576892033e0	-2.491634245e1	2.712291499e0	2.591208512e1
6.557178125e0	-7.594543199e0	-2.471302307e1	3.494035288e0	2.608867337e1
6.567159125e0	-8.201388289e0	-2.489470073e1	5.333812577e0	2.674805509e1
6.577140125e0	-8.419471307e0	-2.452981577e1	7.637302718e0	2.703567553e1
6.587121125e0	-7.805388533e0	-2.283531840e1	9.318809327e0	2.586921073e1
6.597102125e0	-5.987596775e0	-2.019637408e1	1.017206544e1	2.339264321e1
6.607083125e0	-3.570971197e0	-1.723844310e1	1.039483149e1	2.044427249e1
6.617063125e0	-1.653620068e0	-1.416699193e1	1.010128139e1	1.747781466e1
6.627044125e0	-4.407524447e-1	-1.130282924e1	9.235932062e0	1.460310421e1
6.637025125e0	3.583694154e-1	-8.963947656e0	7.902329521e0	1.195523308e1
6.647006125e0	1.040714924e0	-7.139655549e0	6.113863304e0	9.457118663e0
6.656987125e0	1.536570359e0	-5.439327337e0	4.035283682e0	6.944843032e0
6.666968125e0	1.751365049e0	-3.593561915e0	1.846524975e0	4.403478313e0
6.676948125e0	1.606983700e0	-1.324176829e0	-1.834923515e-1	2.090337372e0
6.686929125e0	1.020401697e0	1.365455832e0	-2.117539328e0	2.718393286e0
6.696910125e0	3.596267129e-1	4.008054076e0	-3.773766377e0	5.516805372e0
6.706891125e0	-2.651379007e-1	6.283626101e0	-5.032910766e0	8.055088197e0
6.716872125e0	-7.734688094e-1	8.113402312e0	-5.951199612e0	1.009169599e1
6.726853125e0	-7.336036626e-1	9.481948982e0	-6.479056420e0	1.150754982e1
6.736833125e0	-2.689076006e-2	1.025899716e1	-6.527094805e0	1.215938784e1
6.746814125e0	1.027225251e0	1.033751475e1	-6.155752172e0	1.207529245e1
6.756795125e0	2.326506536e0	9.868703706e0	-5.551314965e0	1.155945688e1
6.766776125e0	3.677561261e0	9.296910335e0	-4.762841031e0	1.107436921e1
6.776757125e0	4.811687794e0	8.894860464e0	-4.054671587e0	1.089546896e1
6.786738125e0	5.371858070e0	8.533844599e0	-3.429467994e0	1.065103814e1
6.796718125e0	5.216219223e0	8.266750805e0	-2.936196297e0	1.020633923e1
6.806699125e0	4.578554920e0	8.187160259e0	-2.652012261e0	9.748124297e0
6.816680125e0	3.702699026e0	8.282587404e0	-2.624002051e0	9.444396272e0
6.826661125e0	2.700277810e0	8.544516937e0	-2.675164019e0	9.351832573e0
6.836642125e0	1.756391900e0	8.808592399e0	-2.748093416e0	9.392988341e0
6.846623125e0	1.126115555e0	8.884419676e0	-2.818926294e0	9.388684395e0
6.856604125e0	8.007066017e-1	8.851792213e0	-2.882684918e0	9.343726707e0
6.866584125e0	7.064477313e-1	8.875013260e0	-2.970285856e0	9.385495556e0
6.876565125e0	8.437365541e-1	8.929193560e0	-3.027867482e0	9.466275429e0
6.886546125e0	1.046693409e0	9.016825197e0	-3.047792746e0	9.575371760e0
6.896527125e0	1.181662057e0	9.095628122e0	-3.066048338e0	9.670957996e0
6.906508125e0	1.431859152e0	9.114208235e0	-3.097520977e0	9.732093741e0
6.916489125e0	1.674079476e0	9.075758699e0	-3.051631736e0	9.720308344e0
6.926469125e0	1.780883255e0	9.060974599e0	-2.951440865e0	9.694524693e0
6.936450125e0	1.842675461e0	9.073567747e0	-2.802728045e0	9.673694693e0
6.946431125e0	1.890548370e0	9.098350586e0	-2.650332355e0	9.663250908e0
6.956412125e0	1.960668764e0	9.184380670e0	-2.519365835e0	9.723388015e0
6.966393125e0	2.029503064e0	9.320963441e0	-2.360890795e0	9.827158669e0
6.976374125e0	2.292978309e0	9.333047297e0	-2.224995949e0	9.864792362e0
6.986354125e0	2.763942879e0	9.172623088e0	-2.086086570e0	9.804496506e0
6.996335125e0	3.120827686e0	9.096971228e0	-1.975392638e0	9.818178397e0
7.006316125e0	3.149924016e0	9.154591445e0	-2.042587671e0	9.894479785e0
7.016297125e0	2.998735777e0	9.125122647e0	-2.192069693e0	9.852179917e0
7.026278125e0	2.770255825e0	8.944673479e0	-2.366652495e0	9.658288928e0
7.036259125e0	2.546306588e0	8.589152827e0	-2.494287419e0	9.299392091e0
7.046239125e0	2.214997210e0	7.824154587e0	-2.246727126e0	8.436313793e0
7.056220125e0	1.813258704e0	5.999595262e0	-1.238118240e0	6.388739094e0
7.066201125e0	1.502061408e0	2.911557299e0	4.499792048e-1	3.306937506e0
7.076182125e0	1.271723796e0	-1.507044990e0	2.402318611e0	3.107989820e0
7.086163125e0	8.518764630e-1	-7.027561501e0	4.076911180e0	8.169058632e0
7.096144125e0	-7.333840996e-2	-1.273231910e1	5.169268420e0	1.374185811e1
7.106125125e0	-1.205838247e0	-1.735598850e1	5.435494487e0	1.822714962e1
7.116105125e0	-2.703650776e0	-2.061630006e1	4.953220818e0	2.137465677e1
7.126086125e0	-4.576191476e0	-2.409835674e1	4.533964931e0	2.494452172e1
7.136067125e0	-6.883289056e0	-2.738559589e1	4.300996949e0	2.856307241e1
7.146048125e0	-8.697409932e0	-2.963615879e1	3.955024508e0	3.113822516e1
7.156029125e0	-9.524966948e0	-2.985470666e1	3.153551628e0	3.149560911e1
7.166010125e0	-9.562953969e0	-2.869187088e1	2.484480177e0	3.034544752e1
7.175990125e0	-9.049361444e0	-2.753462271e1	2.523736044e0	2.909322316e1
7.185971125e0	-8.065151088e0	-2.639253987e1	3.261434219e0	2.778938243e1
7.195952125e0	-6.624525790e0	-2.474199251e1	4.206637799e0	2.595662414e1
7.205933125e0	-4.932339242e0	-2.246222862e1	4.718282617e0	2.347641105e1
7.215914125e0	-2.957586581e0	-1.972627899e1	4.576317483e0	2.046499653e1
7.225895125e0	-8.972844779e-1	-1.664358480e1	4.073550493e0	1.715831717e1
7.235875125e0	5.083566365e-1	-1.332705344e1	3.534216769e0	1.379708186e1
7.245856125e0	1.048676785e0	-9.904947088e0	3.161104769e0	1.044989393e1
7.255837125e0	1.018489365e0	-6.569426308e0	3.049700693e0	7.314052017e0
7.265818125e0	6.374877164e-1	-3.566494569e0	2.912193477e0	4.648348626e0
7.275799125e0	1.277324259e-1	-6.715801996e-1	2.538686789e0	2.629118893e0
7.285780125e0	-4.072556466e-1	2.314498694e0	1.727948120e0	2.916944646e0
7.295760125e0	-7.368810269e-1	5.219199548e0	6.726383995e-1	5.313706803e0
7.305741125e0	-8.035248135e-1	7.794351913e0	-2.398160217e-1	7.839329410e0
7.315722125e0	-7.404172768e-1	9.769706252e0	-6.727497158e-1	9.820792747e0
7.325702000e0	-4.648594916e-1	1.098172939e1	-5.107092637e-1	1.100342214e1
7.335683000e0	4.993434459e-2	1.134161382e1	9.126399972e-2	1.134209093e1
7.345664000e0	7.990155870e-1	1.100765945e1	1.075293018e0	1.108887946e1
7.355645000e0	1.567802238e0	1.035528794e1	1.993870717e0	1.066140294e1
7.365625000e0	2.334957809e0	9.717409340e0	2.575510215e0	1.032052930e1
7.375606000e0	2.994311773e0	9.257369708e0	2.898146710e0	1.015204665e1
7.385587000e0	3.213976170e0	9.288947597e0	2.850383145e0	1.023420121e1
7.395568000e0	3.025658989e0	9.586732841e0	2.616845351e0	1.038787459e1
7.405549000e0	2.592073038e0	9.764663029e0	2.295408704e0	1.036032759e1
7.415530000e0	2.091499630e0	9.861201729e0	1.870604979e0	1.025265006e1
7.425510000e0	1.620375431e0	9.754749659e0	1.380404824e0	9.984301424e0
7.435491000e0	1.316122874e0	9.661091883e0	6.310350946e-1	9.770725719e0
7.445472000e0	8.858404537e-1	9.625572971e0	8.134682961e-3	9.666252351e0
7.455453000e0	1.307890579e-1	9.729988455e0	-4.126449522e-1	9.739612773e0
7.465434000e0	-3.237199849e-1	9.998541130e0	-7.760261623e-1	1.003383456e1
7.475415000e0	1.961787629e-1	1.010971892e1	-9.051548302e-1	1.015205437e1
7.485395000e0	1.187940505e0	1.023301097e1	-5.921113495e-1	1.031873597e1
7.495376000e0	1.979798515e0	1.032282888e1	-9.479973793e-2	1.051139312e1
7.505357000e0	2.546957091e0	1.024569007e1	4.635568050e-1	1.056768851e1
7.515338000e0	2.995074542e0	1.026544781e1	9.418881353e-1	1.073485182e1
7.525319000e0	3.196723083e0	1.046258669e1	1.228710508e0	1.100883682e1
7.535300000e0	3.058327967e0	1.066428288e1	1.342356846e0	1.117507142e1
7.545280000e0	2.696702237e0	1.086900443e1	1.345722503e0	1.127911474e1
7.555261000e0	2.429341518e0	1.113087432e1	1.277359343e0	1.146427975e1
7.565242000e0	2.419053049e0	1.133747399e1	1.453503206e0	1.168344152e1
7.575223000e0	2.484079350e0	1.134925145e1	1.779539127e0	1.175342156e1
7.585204000e0	2.510242716e0	1.119783547e1	2.038339376e0	1.165537065e1
7.595185000e0	2.494919211e0	1.100505978e1	2.255665179e0	1.150756221e1
7.605165000e0	2.328836944e0	1.094129473e1	2.394196243e0	1.143973721e1
7.615146000e0	2.100436368e0	1.092947049e1	2.457461947e0	1.139755576e1
7.625127000e0	1.979766355e0	1.086858694e1	2.543793747e0	1.133651373e1
7.635108000e0	1.848761828e0	1.067540546e1	2.671567104e0	1.115882936e1
7.645089000e0	1.617241324e0	1.029832905e1	2.812718890e0	1.079733477e1
7.655070000e0	1.388799087e0	9.598865229e0	3.026441638e0	1.016003571e1
7.665050000e0	8.927131248e-1	8.415398136e0	3.156977220e0	9.032295815e0
7.675031000e0	2.781505868e-1	6.510177641e0	3.604396806e0	7.446573507e0
7.685012000e0	-3.205680433e-1	3.403929695e0	4.668911651e0	5.786902215e0
7.694993000e0	-9.204224950e-1	-9.538001561e-1	6.357235529e0	6.493947635e0
7.704974000e0	-1.411131358e0	-7.217773765e0	8.293280207e0	1.108449577e1
7.714955000e0	-1.905440935e0	-1.448368298e1	8.914632239e0	1.711369176e1
7.724935000e0	-2.391465301e0	-2.053421451e1	7.174907827e0	2.188269577e1
7.734916000e0	-3.438836111e0	-2.503724182e1	3.649853060e0	2.553449626e1
7.744897000e0	-5.667950546e0	-2.823017708e1	-4.861954699e-1	2.879765524e1
7.754878000e0	-8.485855916e0	-3.067493302e1	-3.805686620e0	3.205377540e1
7.764859000e0	-1.000176528e1	-3.249387084e1	-5.482228943e0	3.443750550e1
7.774840000e0	-9.452609993e0	-3.393215491e1	-5.614920977e0	3.566889836e1
7.784820000e0	-8.112072655e0	-3.522502107e1	-4.475313265e0	3.642301828e1
7.794801000e0	-7.068596091e0	-3.520559428e1	-2.521085501e0	3.599659416e1
7.804782000e0	-6.669689684e0	-3.265944059e1	-7.927618437e-1	3.334294966e1
7.814763000e0	-6.562734169e0	-2.827121985e1	2.771198688e-1	2.902426824e1
7.824744000e0	-6.141182081e0	-2.322050958e1	9.445318808e-1	2.403743586e1
7.834725000e0	-5.326418188e0	-1.851805830e1	1.529532358e0	1.932947705e1
7.844706000e0	-4.090559458e0	-1.422927180e1	2.240802727e0	1.497417942e1
7.854686000e0	-2.739663777e0	-1.014421749e1	3.083395273e0	1.095071836e1
7.864667000e0	-1.325295401e0	-6.387556851e0	3.826968731e0	7.563265174e0
7.874648000e0	-2.136976057e-1	-3.151209526e0	4.357983620e0	5.382175153e0
7.884629000e0	3.292935508e-1	-2.914983183e-1	4.381730332e0	4.403744568e0
7.894610000e0	3.468626797e-1	2.400471475e0	3.772808311e0	4.485159927e0
7.904591000e0	-3.565281272e-2	5.208845884e0	2.606115711e0	5.824533085e0
7.914571000e0	-4.572554800e-1	8.025471298e0	1.144809980e0	8.119597405e0
7.924552000e0	-7.203807691e-1	1.032382057e1	-3.512806897e-1	1.035488376e1
7.934533000e0	-5.690429874e-1	1.151332433e1	-1.515773275e0	1.162660808e1
7.944514000e0	2.651593892e-1	1.185489761e1	-2.202928703e0	1.206075461e1
7.954495000e0	1.336779040e0	1.193050796e1	-2.340255387e0	1.223114032e1
7.964476000e0	2.107528895e0	1.160761769e1	-2.092196326e0	1.198147537e1
7.974456000e0	2.626751119e0	1.103563721e1	-1.557728071e0	1.145039855e1
7.984437000e0	2.970581726e0	1.069614085e1	-1.041137531e0	1.114969741e1
7.994418000e0	2.913136048e0	1.030499136e1	-6.429493082e-1	1.072812157e1
8.004399000e0	2.636997780e0	9.494064998e0	-5.061314785e-1	9.866468292e0
8.014380000e0	2.313442394e0	8.591392311e0	-7.453568584e-1	8.928583001e0
8.024361000e0	1.793156415e0	8.114771730e0	-1.421852958e0	8.431286734e0
8.034341000e0	1.186211337e0	7.920042492e0	-2.259316327e0	8.320978348e0
8.044322000e0	7.204053274e-1	7.867026372e0	-3.160309255e0	8.508621649e0
8.054303000e0	6.576734743e-1	7.921248772e0	-3.880305862e0	8.845082820e0
8.064284000e0	7.298032647e-1	7.906574600e0	-4.270558975e0	9.015775544e0
8.074265000e0	8.765780255e-1	7.955766640e0	-4.367012891e0	9.117752654e0
8.084246000e0	1.092953364e0	8.218898946e0	-4.254747519e0	9.319212595e0
8.094226000e0	1.453727446e0	8.554119235e0	-3.923005739e0	9.522407962e0
8.104207000e0	1.895140334e0	8.901260242e0	-3.455114467e0	9.734567620e0
8.114188000e0	2.313143602e0	9.197767285e0	-2.925086002e0	9.925002996e0
8.124169000e0	2.650596650e0	9.419014816e0	-2.399037884e0	1.007466553e1
8.134150000e0	2.781989433e0	9.663850599e0	-2.077067971e0	1.026857755e1
8.144131000e0	2.855080798e0	9.868956306e0	-1.827678376e0	1.043495056e1
8.154111000e0	2.924970227e0	1.006360778e1	-1.647310046e0	1.060873615e1
8.164092000e0	3.037964162e0	1.023028851e1	-1.505869846e0	1.077755414e1
8.174073000e0	2.973788631e0	1.045463915e1	-1.418988700e0	1.096158873e1
8.184054000e0	2.823785622e0	1.062519074e1	-1.374983870e0	1.107966715e1
8.194035000e0	2.635805241e0	1.076976081e1	-1.364509899e0	1.117126243e1
8.204016000e0	2.448979830e0	1.085321344e1	-1.395250905e0	1.121322742e1
8.213996000e0	2.419069129e0	1.094287932e1	-1.531354204e0	1.131121342e1
8.223977000e0	2.579650043e0	1.095303710e1	-1.662207874e0	1.137482093e1
8.233958000e0	2.935184729e0	1.079351921e1	-1.651388771e0	1.130674362e1
8.243939000e0	3.100744839e0	1.057297510e1	-1.643848202e0	1.114022702e1
8.253920000e0	3.082151570e0	1.045085250e1	-1.607283223e0	1.101377935e1
8.263901000e0	2.941711975e0	1.036712505e1	-1.463383831e0	1.087531348e1
8.273881000e0	2.383985835e0	9.948448033e0	-9.188729829e-1	1.027128689e1
8.283862000e0	1.515133443e0	8.680995628e0	2.162808873e-1	8.814879005e0
8.293843000e0	7.818449458e-1	6.351646761e0	1.831006465e0	6.656371592e0
8.303824000e0	2.651697680e-1	2.637817560e0	4.026476898e0	4.820882979e0
8.313805000e0	2.028349409e-1	-2.864152168e0	6.702283233e0	7.291440886e0
8.323786375e0	4.177014050e-1	-9.500430862e0	8.868726919e0	1.300334488e1
8.333766375e0	7.935516563e-1	-1.587187045e1	9.842033386e0	1.869255512e1
8.343747375e0	1.557496521e0	-2.133331839e1	8.417943429e0	2.298691020e1
8.353728375e0	1.547623497e0	-2.516617292e1	3.835450117e0	2.550376591e1
8.363709375e0	-8.155781177e-1	-2.789220333e1	-1.507057269e0	2.794479193e1
8.373690375e0	-4.399420499e0	-3.053714689e1	-5.307980747e0	3.130570077e1
8.383671375e0	-6.540897743e0	-3.164965686e1	-7.565119425e0	3.319209476e1
8.393651375e0	-7.056719227e0	-3.075070826e1	-7.581184065e0	3.244807693e1
8.403632375e0	-6.682385159e0	-2.990318008e1	-4.818996229e0	3.101736892e1
8.413613375e0	-5.681633030e0	-2.940195208e1	-3.313852461e-1	2.994771370e1
8.423594375e0	-4.146480767e0	-2.836318252e1	3.941539659e0	2.893439407e1
8.433575375e0	-2.714113491e0	-2.636327572e1	6.447901286e0	2.727570622e1
8.443556375e0	-1.557193050e0	-2.320464257e1	7.082415985e0	2.431133282e1
8.453536375e0	-8.428884155e-1	-1.957740186e1	6.351665472e0	2.059924219e1
8.463517375e0	-3.895755668e-1	-1.620239601e1	4.830421103e0	1.691160470e1
8.473498375e0	-5.840541056e-1	-1.281943560e1	3.067582063e0	1.319428315e1
8.483479375e0	-1.345640350e0	-9.549112440e0	1.543393037e0	9.766184435e0
8.493460375e0	-2.052049051e0	-6.189535046e0	3.621531487e-1	6.530880820e0
8.503441375e0	-2.497207226e0	-2.773477056e0	-4.025872296e-1	3.753704222e0
8.513421375e0	-2.648573221e0	3.894269013e-1	-9.606671262e-1	2.844200194e0
8.523402375e0	-2.766755097e0	3.565427452e0	-1.523162255e0	4.763111372e0
8.533383375e0	-3.238128971e0	6.686468854e0	-2.053808770e0	7.707948847e0
8.543364375e0	-3.871003235e0	9.277450216e0	-2.310785712e0	1.031481843e1
8.553345375e0	-4.314377425e0	1.108963274e1	-2.146504680e0	1.209137251e1
8.563326375e0	-4.365861574e0	1.214093171e1	-1.643906674e0	1.300635995e1
8.573306375e0	-3.932904491e0	1.258482893e1	-7.559391493e-1	1.320670667e1
8.583287375e0	-3.139724425e0	1.256845907e1	2.573160803e-1	1.295724679e1
8.593268375e0	-2.192893273e0	1.239503299e1	1.229014564e0	1.264737524e1
8.603249375e0	-1.263108070e0	1.222111341e1	1.995730716e0	1.244724853e1
8.613230375e0	-3.907650366e-1	1.207023302e1	2.360422726e0	1.230507286e1
8.623211375e0	2.573032165e-1	1.186538050e1	2.375597420e0	1.210359131e1
8.633191375e0	5.438429497e-1	1.156623929e1	2.144134219e0	1.177586379e1
8.643172375e0	3.173810184e-1	1.119062117e1	1.626456828e0	1.131265198e1
8.653153375e0	-2.268390767e-1	1.071701308e1	8.918126535e-1	1.075644714e1
8.663134375e0	-8.005092582e-1	1.010712509e1	1.166694939e-1	1.013944794e1
8.673115375e0	-9.990573129e-1	9.597427399e0	-7.395581746e-1	9.677586191e0
8.683096375e0	-6.262869363e-1	9.293846979e0	-1.448641831e0	9.426897164e0
8.693076375e0	1.256625116e-2	9.069741914e0	-1.864458386e0	9.259405022e0
8.703057375e0	7.997064355e-1	8.826201289e0	-2.038923513e0	9.093875338e0
8.713038375e0	1.606501451e0	8.658499051e0	-2.009179312e0	9.032566315e0
8.723019375e0	2.256480866e0	8.646081319e0	-1.951012965e0	9.146194819e0
8.733000375e0	2.656770432e0	8.758201094e0	-1.968330663e0	9.361561896e0
8.742981375e0	2.869486583e0	8.959474536e0	-2.022395774e0	9.622693068e0
8.752961375e0	2.884722673e0	9.231560099e0	-2.094091408e0	9.895885285e0
8.762942375e0	2.680427974e0	9.502264549e0	-2.100377165e0	1.009402347e1
8.772923375e0	2.434623015e0	9.767461506e0	-2.016924534e0	1.026638583e1
8.782904375e0	2.453692832e0	9.944674240e0	-1.765993613e0	1.039403135e1
8.792885375e0	2.676835153e0	9.817149975e0	-1.468172116e0	1.028092454e1
8.802866375e0	2.902639711e0	9.689947307e0	-1.320840408e0	1.020122618e1
8.812846375e0	2.931505953e0	9.794145859e0	-1.267711437e0	1.030175289e1
8.822827375e0	2.917463572e0	9.940401095e0	-1.195402429e0	1.042843011e1
8.832808375e0	2.877746360e0	9.936043750e0	-1.057522160e0	1.039830480e1
8.842789375e0	2.861666809e0	9.896798408e0	-8.720882410e-1	1.033906638e1
8.852770375e0	2.827236649e0	9.804028239e0	-6.685583586e-1	1.022541965e1
8.862751375e0	2.657011922e0	9.655189703e0	-4.736203748e-1	1.002530383e1
8.872731375e0	2.576198724e0	9.402499940e0	-2.292740035e-1	9.751736848e0
8.882712375e0	2.431486861e0	8.770822309e0	2.733058763e-1	9.105720644e0
8.892693375e0	2.158047376e0	7.572079366e0	1.032317737e0	7.940984467e0
8.902674375e0	1.802137299e0	5.332570628e0	2.253095913e0	6.063039629e0
8.912655375e0	1.304916101e0	2.019927664e0	3.805304797e0	4.501472914e0
8.922636375e0	1.032311890e0	-2.554812241e0	5.474262697e0	6.128644670e0
8.932616375e0	1.042010374e0	-8.469631062e0	6.743362847e0	1.087627594e1
8.942597375e0	1.334671704e0	-1.486959804e1	6.772794807e0	1.639381115e1
8.952578375e0	2.205473850e0	-2.019482808e1	4.789424520e0	2.087184187e1
8.962559375e0	2.295640839e0	-2.377186225e1	1.431012475e0	2.392528367e1
8.972540375e0	7.456954122e-3	-2.686488263e1	-1.250078719e0	2.689395231e1
8.982521375e0	-3.583539788e0	-2.972782910e1	-2.452165539e0	3.004328038e1
8.992501375e0	-6.214290403e0	-3.112002074e1	-2.747718317e0	3.185314823e1
9.002482375e0	-7.036784899e0	-3.096407784e1	-2.435819648e0	3.184687858e1
9.012463375e0	-6.539262276e0	-3.091215690e1	-1.382105048e0	3.162647008e1
9.022444375e0	-5.374417981e0	-3.132620526e1	-1.417710060e-1	3.178420368e1
9.032425375e0	-4.484656531e0	-3.104840404e1	9.890316769e-2	3.137077174e1
9.042406375e0	-3.792495594e0	-2.923434281e1	-1.101799178e0	2.949989464e1
9.052386375e0	-3.095532631e0	-2.625912980e1	-2.427752975e0	2.655217890e1
9.062367375e0	-2.200634694e0	-2.192380764e1	-2.599320077e0	2.218676632e1
9.072348375e0	-1.426605429e0	-1.696446011e1	-1.350085841e0	1.707778797e1
9.082329375e0	-1.113639058e0	-1.238820344e1	7.638195149e-1	1.246158885e1
9.092310375e0	-1.050999591e0	-7.998416816e0	2.963179443e0	8.594166866e0
9.102291375e0	-9.906346911e-1	-3.751699862e0	4.650870652e0	6.056996514e0
9.112271375e0	-6.231652540e-1	2.664067465e-1	5.594192598e0	5.635095235e0
9.122252375e0	-2.955562860e-2	4.008599621e0	5.843966939e0	7.086726610e0
9.132233375e0	3.245619839e-1	7.336641812e0	5.367542825e0	9.096272288e0
9.142214375e0	2.619438592e-1	9.838185918e0	4.462161123e0	1.080598902e1
9.152195375e0	5.921226785e-2	1.140509470e1	3.373530021e0	1.189371246e1
9.162176375e0	8.547123626e-2	1.233850211e1	2.490166594e0	1.258756805e1
9.172156375e0	3.961583622e-1	1.285834531e1	1.882128671e0	1.300139969e1
9.182137375e0	8.310397638e-1	1.286731494e1	1.795348974e0	1.301851369e1
9.192118375e0	1.060708454e0	1.261251901e1	2.026956017e0	1.281831849e1
9.202099375e0	1.087810153e0	1.236964204e1	2.246946981e0	1.261903902e1
9.212080375e0	9.248596546e-1	1.207061192e1	2.279660983e0	1.231876178e1
9.222061375e0	5.691007286e-1	1.168875015e1	1.942404109e0	1.186270161e1
9.232041375e0	-1.010369629e-2	1.118330163e1	1.372687669e0	1.126723608e1
9.242022375e0	-4.645074892e-1	1.081170756e1	7.266662335e-1	1.084605142e1
9.252003375e0	-7.694226824e-1	1.057907726e1	-2.152009706e-2	1.060704247e1
9.261984375e0	-9.133580352e-1	1.030605673e1	-6.022129261e-1	1.036396105e1
9.271965375e0	-1.013484733e0	9.957851526e0	-1.009457463e0	1.006006773e1
9.281946375e0	-9.501992945e-1	9.765326103e0	-1.386213448e0	9.908887946e0
9.291926375e0	-6.629143336e-1	9.799972025e0	-1.685758120e0	9.965976497e0
9.301907375e0	-4.378421393e-1	9.908564175e0	-1.899881988e0	1.009855937e1
9.311888375e0	-3.271004064e-1	1.001101324e1	-2.100001774e0	1.023412860e1
9.321869792e0	-3.541455330e-1	1.012056433e1	-2.198924968e0	1.036274638e1
9.331850792e0	-3.947636551e-1	1.019535958e1	-2.241622506e0	1.044634227e1
9.341831792e0	-4.310539605e-1	1.022286605e1	-2.171712027e0	1.045988197e1
9.351811792e0	-3.968247986e-1	1.031105025e1	-1.942503512e0	1.049993081e1
9.361792792e0	-3.769778869e-1	1.049217828e1	-1.773701413e0	1.064771966e1
9.371773792e0	-3.302482550e-1	1.062712968e1	-1.602995460e0	1.075242036e1
9.381754792e0	-1.748336484e-1	1.063318038e1	-1.392965228e0	1.072545774e1
9.391735792e0	-5.896376118e-2	1.051518941e1	-1.208123120e0	1.058452864e1
9.401716792e0	-8.993178472e-2	1.014770243e1	-9.975864458e-1	1.019701579e1
9.411696792e0	-1.762847811e-1	9.774349526e0	-1.042873131e0	9.831407293e0
9.421677792e0	-2.833312199e-2	9.452177299e0	-1.242283650e0	9.533505501e0
9.431658792e0	6.133656129e-2	9.090098995e0	-1.467247086e0	9.207957207e0
9.441639792e0	1.270458166e-1	8.751318337e0	-1.590123399e0	8.895516044e0
9.451620792e0	2.224352463e-1	8.462569964e0	-1.541038948e0	8.604613232e0
9.461601792e0	2.042653160e-1	8.211543733e0	-1.323446512e0	8.320017156e0
9.471581792e0	1.979022297e-1	7.749944065e0	-8.767642593e-1	7.801891685e0
9.481562792e0	2.078097519e-1	6.952018983e0	-2.356515616e-1	6.959115209e0
9.491543792e0	1.422159791e-2	5.540601112e0	4.791109834e-1	5.561295737e0
9.501524792e0	-2.078845963e-1	3.285941069e0	1.407865688e0	3.580881248e0
9.511505792e0	-4.917271551e-1	-1.668099529e-1	2.714488006e0	2.763705174e0
9.521486792e0	-9.085698965e-1	-4.677790064e0	3.973870668e0	6.204745541e0
9.531466792e0	-1.103855059e0	-9.241179938e0	4.387277001e0	1.028912543e1
9.541447792e0	-1.422565295e0	-1.310993229e1	3.760290007e0	1.371254161e1
9.551428792e0	-2.009024068e0	-1.641317293e1	1.952293505e0	1.665052171e1
9.561409792e0	-3.029878339e0	-1.937299490e1	-2.350522220e-1	1.960990422e1
9.571390792e0	-4.236965552e0	-2.242485789e1	-1.475423394e0	2.286925890e1
9.581371792e0	-5.152594500e0	-2.604540471e1	-1.282771818e0	2.658115573e1
9.591351792e0	-5.309881677e0	-2.951613416e1	1.642610054e-1	2.999039848e1
9.601332792e0	-5.391302401e0	-3.109738266e1	1.722611951e0	3.160823851e1
9.611313792e0	-5.774418987e0	-3.082721557e1	2.951873851e0	3.150197920e1
9.621294792e0	-5.743383721e0	-3.013184831e1	3.732883523e0	3.090063363e1
9.631275792e0	-4.671571550e0	-2.875616219e1	4.154190028e0	2.942783953e1
9.641256792e0	-3.833761441e0	-2.604202034e1	4.025631391e0	2.662874872e1
9.651236792e0	-3.274513856e0	-2.301913849e1	3.487647790e0	2.351099455e1
9.661217792e0	-2.572021766e0	-1.990034592e1	2.738454573e0	2.025186898e1
9.671198792e0	-1.646300232e0	-1.664991616e1	1.989885839e0	1.684902544e1
9.681179792e0	-8.476033178e-1	-1.330670747e1	1.430366797e0	1.341017689e1
9.691160792e0	-2.799129376e-1	-9.719873357e0	1.050937026e0	9.780529534e0
9.701140792e0	1.721990392e-1	-5.882168553e0	8.702684413e-1	5.948691164e0
9.711121792e0	5.805820289e-1	-2.007510517e0	7.332749029e-1	2.214693218e0
9.721102792e0	9.496723142e-1	1.623997489e0	4.841155422e-1	1.942579009e0
9.731083792e0	1.164513343e0	5.059574654e0	6.967015922e-2	5.192325196e0
9.741064792e0	1.304872831e0	8.073910217e0	-4.471377504e-1	8.190888320e0
9.751045792e0	1.510267683e0	1.031078011e1	-1.131234646e0	1.048202207e1
9.761025792e0	1.825969381e0	1.162175743e1	-1.776089562e0	1.189764280e1
9.771006792e0	2.415165528e0	1.228796112e1	-2.036198126e0	1.268751811e1
9.780987792e0	3.326083374e0	1.229770959e1	-1.957841782e0	1.288912861e1
9.790968792e0	4.394640692e0	1.190541990e1	-1.595435010e0	1.279051612e1
9.800949792e0	5.112294320e0	1.145589297e1	-1.098845018e0	1.259287487e1
9.810930792e0	5.255318384e0	1.101821485e1	-5.592908549e-1	1.222015696e1
9.820910792e0	4.792884610e0	1.058806794e1	-4.014705576e-2	1.162241530e1
9.830891792e0	4.039765280e0	1.015647559e1	3.287619659e-1	1.093534565e1
9.840872792e0	3.317679171e0	9.844448286e0	6.153469419e-1	1.040667137e1
9.850853792e0	2.571322439e0	9.727762420e0	6.916927942e-1	1.008560854e1
9.860834792e0	1.793848287e0	9.591251569e0	6.132687684e-1	9.776814252e0
9.870815792e0	1.123180545e0	9.530489643e0	4.571147814e-1	9.607326439e0
9.880795792e0	8.066187215e-1	9.478134844e0	1.777530169e-1	9.514056444e0
9.890776792e0	7.359659377e-1	9.342705728e0	-1.704638779e-1	9.373198713e0
9.900757792e0	7.085772872e-1	9.199753000e0	-5.139666744e-1	9.241303954e0
9.910738792e0	6.886985081e-1	9.090042862e0	-8.074934649e-1	9.151788380e0
9.920719792e0	6.418780982e-1	9.044653265e0	-1.070225236e0	9.130341847e0
9.930700792e0	5.110200432e-1	9.005747062e0	-1.228160285e0	9.103460843e0
9.940680792e0	5.504976659e-1	8.786636104e0	-1.376193659e0	8.910776099e0
9.950661792e0	7.789093512e-1	8.697422796e0	-1.628679940e0	8.882818326e0
9.960642792e0	9.005732444e-1	9.005341850e0	-1.916035506e0	9.250859747e0
9.970623792e0	7.799323216e-1	9.291077152e0	-2.027379355e0	9.541628589e0
9.980604792e0	4.940438220e-1	9.487826019e0	-1.927867931e0	9.694307434e0
9.990585792e0	2.517202950e-1	9.757989601e0	-1.658478520e0	9.901124945e0
1.000056579e1	1.203178641e-1	1.009124289e1	-1.309654684e0	1.017658365e1
1.001054679e1	1.465063736e-1	1.045858953e1	-9.051502986e-1	1.049870736e1
1.002052779e1	2.767533946e-1	1.064056892e1	-5.275178160e-1	1.065723108e1
1.003050879e1	5.793064588e-1	1.059430575e1	-2.153611751e-1	1.061231787e1
1.004048979e1	9.426705658e-1	1.048626440e1	-5.587716222e-2	1.052869846e1
1.005047079e1	1.219535058e0	1.030550124e1	-3.392496049e-2	1.037746465e1
1.006045079e1	1.395949939e0	9.699592289e0	-8.507702429e-2	9.799898209e0
1.007043179e1	1.456839042e0	8.900524077e0	-3.565368980e-1	9.026008387e0
1.008041279e1	1.539056742e0	8.102717695e0	-6.722181308e-1	8.274938484e0
1.009039379e1	1.593725577e0	7.139324012e0	-7.885414696e-1	7.357425243e0
1.010037479e1	1.212955478e0	5.563926240e0	-6.033958179e-1	5.726484324e0
1.011035579e1	5.166745931e-1	3.097709257e0	1.004931627e-1	3.142109825e0
1.012033579e1	-2.254145488e-1	-8.470528024e-1	1.828485146e0	2.027724857e0
1.013031679e1	-1.130724038e0	-6.242431882e0	4.196613332e0	7.606448324e0
1.014029779e1	-1.516342063e0	-1.237863389e1	6.151878977e0	1.390595143e1
1.015027879e1	-6.073397648e-1	-1.799549263e1	6.596329347e0	1.917597918e1
1.016025979e1	1.105176676e0	-2.162772569e1	4.466017946e0	2.211165418e1
1.017024079e1	1.536344803e0	-2.410565173e1	4.523850417e-1	2.415879659e1
1.018022079e1	-7.497621506e-1	-2.702413038e1	-3.100189061e0	2.721170590e1
1.019020179e1	-4.047242700e0	-2.969019408e1	-4.597389679e0	3.031540516e1
1.020018279e1	-6.692402608e0	-3.041101076e1	-3.854186350e0	3.137630604e1
1.021016379e1	-8.148915961e0	-3.064948828e1	-1.102514731e0	3.173344453e1
1.022014479e1	-8.783983807e0	-3.078680897e1	1.868717498e0	3.206989372e1
1.023012579e1	-9.314008763e0	-3.063153031e1	3.514820970e0	3.220862268e1
1.024010579e1	-9.637226472e0	-2.934059607e1	3.030463353e0	3.103112019e1
1.025008679e1	-9.504482982e0	-2.616353951e1	2.936968349e-1	2.783796427e1
1.026006779e1	-8.929346173e0	-2.179635472e1	-2.473602601e0	2.368402440e1
1.027004879e1	-7.969024032e0	-1.696704108e1	-4.133278631e0	1.919556769e1
1.028002979e1	-5.992635906e0	-1.235416446e1	-4.036466281e0	1.431188753e1
1.029000979e1	-3.683301765e0	-8.112375541e0	-2.404790229e0	9.228237364e0
1.029999079e1	-2.119882307e0	-3.846261619e0	-3.228481650e-1	4.403619009e0
1.030997179e1	-1.191721022e0	1.229287629e0	1.337914277e0	2.172869458e0
1.031995279e1	-1.756032881e-1	6.754377247e0	2.046057701e0	7.059660093e0
1.032993329e1	9.976396555e-1	1.136077047e1	2.128570100e0	1.160143100e1
1.033991429e1	1.855703057e0	1.439181504e1	2.033549337e0	1.465275731e1
1.034989429e1	2.097049222e0	1.576772101e1	2.080259235e0	1.604201109e1
1.035987529e1	1.761225501e0	1.555641199e1	2.436733568e0	1.584429045e1
1.036985629e1	1.301333804e0	1.487454011e1	2.908911434e0	1.521207346e1
1.037983729e1	9.960223156e-1	1.397399172e1	3.507297943e0	1.444180196e1
1.038981829e1	5.161968756e-1	1.278835765e1	4.152718284e0	1.345561666e1
1.039979929e1	1.841454855e-1	1.162687959e1	4.593748033e0	1.250283006e1
1.040977929e1	-3.051851884e-2	1.061248474e1	4.404571896e0	1.149025750e1
1.041976029e1	-2.378422210e-1	9.871642517e0	3.290829341e0	1.040843181e1
1.042974129e1	-4.825461495e-1	9.227174102e0	1.562392395e0	9.370947801e0
1.043972229e1	-5.404008400e-1	8.719260977e0	-4.089180100e-1	8.745556528e0
1.044970329e1	-2.065875377e-1	8.301726510e0	-2.194402147e0	8.589338871e0
1.045968429e1	1.146454802e-1	7.900746680e0	-3.699792960e0	8.724873044e0
1.046966429e1	2.392958388e-1	7.720219744e0	-4.990966349e0	9.196129647e0
1.047964529e1	3.006373702e-1	7.670110860e0	-5.871202101e0	9.663953515e0
1.048962629e1	3.431622693e-1	7.661686192e0	-6.231568340e0	9.881884416e0
1.049960729e1	4.228276590e-1	7.745750442e0	-6.156695328e0	9.903551408e0
1.050958829e1	6.701780373e-1	7.937021636e0	-5.499913262e0	9.679591776e0
1.051956929e1	7.423708315e-1	8.343916510e0	-4.461862915e0	9.491063051e0
1.052954929e1	6.648636492e-1	8.739425685e0	-3.331984384e0	9.376658515e0
1.053953029e1	4.798312873e-1	9.070172853e0	-2.220472543e0	9.350335393e0
1.054951129e1	5.166412640e-1	9.519941266e0	-1.271095220e0	9.618309777e0
1.055949229e1	6.496743371e-1	9.965477464e0	-5.239164428e-1	1.000036531e1
1.056947329e1	8.264216329e-1	1.020757090e1	2.251031846e-3	1.024097073e1
1.057945429e1	1.088181597e0	1.018685539e1	3.006544002e-1	1.024922216e1
1.058943429e1	1.361186196e0	1.015573884e1	2.809084260e-1	1.025040335e1
1.059941529e1	1.423053246e0	1.041230180e1	6.225303926e-2	1.050928089e1
1.060939629e1	1.420369666e0	1.069664138e1	-2.564552971e-1	1.079357939e1
1.061937729e1	1.502726821e0	1.075247878e1	-5.815933049e-1	1.087254517e1
1.062935829e1	1.782435983e0	1.061142406e1	-6.744564450e-1	1.078120077e1
1.063933829e1	1.954149996e0	1.055040017e1	-6.753930958e-1	1.075108375e1
1.064931929e1	1.866357854e0	1.053183059e1	-7.613969404e-1	1.072298804e1
1.065930029e1	1.526644565e0	1.052348427e1	-7.789806142e-1	1.066213748e1
1.066928129e1	1.143817123e0	1.046835906e1	-5.407832479e-1	1.054453913e1
1.067926229e1	9.832578439e-1	1.014261068e1	-4.753857223e-1	1.020124203e1
1.068924329e1	1.182004996e0	9.791603490e0	-6.902801800e-1	9.886815536e0
1.069922329e1	1.461882266e0	9.552752917e0	-9.045046198e-1	9.706199908e0
1.070920429e1	1.649875804e0	9.120965277e0	-1.136865953e0	9.338445371e0
1.071918529e1	1.691883663e0	8.094365532e0	-1.119733027e0	8.344760377e0
1.072916629e1	1.403655985e0	6.515648296e0	-6.793131423e-1	6.699655900e0
1.073914729e1	9.465797219e-1	4.819887344e0	1.622331179e-1	4.914635975e0
1.074912829e1	5.122883043e-1	2.891188524e0	1.390191309e0	3.248698549e0
1.075910829e1	1.580900002e-1	5.946641707e-1	2.845443417e0	2.911213864e0
1.076908929e1	-9.983477533e-2	-1.993655539e0	4.187318598e0	4.638778550e0
1.077907029e1	-1.620555818e-1	-5.248319852e0	5.454069337e0	7.570864918e0
1.078905129e1	-2.725144556e-1	-9.564370750e0	6.474232467e0	1.155279784e1
1.079903229e1	-5.175823733e-1	-1.389540163e1	6.707078535e0	1.543810158e1
1.080901329e1	-9.877587381e-1	-1.692664617e1	5.853541170e0	1.793741793e1
1.081899329e1	-1.646113121e0	-1.840019831e1	3.968532453e0	1.889513789e1
1.082897429e1	-1.802303945e0	-1.922014868e1	1.754455887e0	1.938402771e1
1.083895529e1	-1.664182479e0	-1.970269366e1	-1.381711677e-2	1.977285593e1
1.084893629e1	-2.657549281e0	-1.997321860e1	-8.953316541e-1	2.016912612e1
1.085891729e1	-5.050140756e0	-2.093651698e1	-6.456907752e-1	2.154666056e1
1.086889829e1	-8.352675054e0	-2.235770847e1	2.371110266e-1	2.386819076e1
1.087887829e1	-1.100232679e1	-2.351542442e1	1.115588959e0	2.598597544e1
1.088885929e1	-1.239490903e1	-2.400772724e1	2.074543435e0	2.709812664e1
1.089884029e1	-1.274427666e1	-2.400732963e1	3.739379487e0	2.743631575e1
1.090882129e1	-1.171478897e1	-2.396798956e1	6.174826959e0	2.738301101e1
1.091880229e1	-9.854335928e0	-2.403903089e1	8.640761522e0	2.737965855e1
1.092878329e1	-8.141430355e0	-2.430066806e1	1.070315751e1	2.777342142e1
1.093876329e1	-6.976921105e0	-2.465202024e1	1.175482603e1	2.818821500e1
1.094874429e1	-6.070254770e0	-2.484362648e1	1.124875653e1	2.793901023e1
1.095872529e1	-5.393510309e0	-2.487856008e1	9.202321681e0	2.706871680e1
1.096870629e1	-5.342165909e0	-2.565942533e1	6.269630206e0	2.694908361e1
1.097868729e1	-5.538730588e0	-2.613242297e1	3.323809392e0	2.691892969e1
1.098866829e1	-5.513278828e0	-2.504904150e1	1.000196204e0	2.566809529e1
1.099864829e1	-4.342094689e0	-2.165942930e1	-3.631910294e-1	2.209336035e1
1.100862929e1	-2.669690440e0	-1.682605067e1	-5.649291788e-1	1.704589022e1
1.101861029e1	-2.818890041e-1	-1.154206573e1	7.132258236e-1	1.156751632e1
1.102859129e1	2.925791177e0	-6.023158956e0	2.453440232e0	7.131484193e0
1.103857229e1	5.791222715e0	-1.743016394e0	4.005184262e0	7.253817455e0
1.104855229e1	7.376875334e0	1.565002592e0	4.566670747e0	8.816008423e0
1.105853329e1	7.068413073e0	4.155264162e0	3.455947110e0	8.897879189e0
1.106851429e1	4.965225152e0	5.357285639e0	1.011530301e0	7.374087318e0
1.107849529e1	1.787542357e0	6.310543174e0	-2.615365421e0	7.061048018e0
1.108847629e1	-9.638863108e-1	8.477754598e0	-6.431275313e0	1.068469475e1
1.109845729e1	-3.024297757e0	1.156231464e1	-9.846629298e0	1.548514143e1
1.110843729e1	-4.700116195e0	1.437661578e1	-1.217278734e1	1.941532707e1
1.111841829e1	-6.301196984e0	1.618922574e1	-1.243538463e1	2.136433720e1
1.112839929e1	-6.630053748e0	1.620275620e1	-1.010848983e1	2.021555064e1
1.113838029e1	-4.168520384e0	1.440542268e1	-5.290359578e0	1.590222214e1
1.114836129e1	-3.213615105e-1	1.246463474e1	9.912299377e-1	1.250811453e1
1.115834229e1	3.607384148e0	1.119723437e1	6.224504904e0	1.330923511e1
1.116832229e1	7.138593110e0	1.074896343e1	9.628649776e0	1.610001935e1
1.117830329e1	9.598957615e0	1.065907769e1	1.152963806e1	1.840349093e1
1.118828429e1	1.044508480e1	1.080966221e1	1.112382843e1	1.869995060e1
1.119826529e1	9.602926120e0	1.064076071e1	8.605270092e0	1.671803373e1
1.120824629e1	7.800001493e0	9.839507389e0	4.806127092e0	1.344450767e1
1.121822629e1	5.818338593e0	8.733619984e0	9.206733406e-1	1.053455369e1
1.122820729e1	4.067710294e0	7.789644905e0	-2.300903333e0	9.083996418e0
1.123818829e1	3.126474050e0	7.294431932e0	-4.481826478e0	9.114293487e0
1.124816929e1	2.693833301e0	7.092525821e0	-5.254666420e0	9.228877481e0
1.125815029e1	2.124548385e0	7.016960499e0	-4.705345652e0	8.711585286e0
1.126813129e1	1.454335849e0	7.232871276e0	-3.115688860e0	8.008560216e0
1.127811129e1	9.488364547e-1	7.732286058e0	-1.197291080e0	7.881753880e0
1.128809229e1	7.628882727e-1	8.410788192e0	3.950636172e-1	8.454550951e0
1.129807329e1	8.787403259e-1	8.616667485e0	1.533070362e0	8.795990441e0
1.130805429e1	1.253828685e0	8.433928548e0	2.113768458e0	8.784717082e0
1.131803529e1	1.774346068e0	8.259147670e0	2.080500725e0	8.700017671e0
1.132801688e1	2.075731151e0	8.052440411e0	1.583769230e0	8.465150994e0
1.133799688e1	2.008420928e0	7.702926604e0	7.786924195e-1	7.998449523e0
1.134797788e1	1.788692797e0	7.580556659e0	-1.056814428e-1	7.789443481e0
1.135795887e1	1.507666841e0	7.670868074e0	-8.009095732e-1	7.858545187e0
1.136793988e1	1.187252580e0	7.778049291e0	-1.044311546e0	7.937140926e0
1.137792088e1	1.028081430e0	7.923397624e0	-9.147711611e-1	8.042013903e0
1.138790188e1	9.363643438e-1	8.130411277e0	-5.086499474e-1	8.199944542e0
1.139788188e1	8.001593024e-1	8.430637735e0	1.051236184e-1	8.469176967e0
1.140786288e1	6.550752640e-1	8.797938187e0	6.501448917e-1	8.846215480e0
1.141784388e1	6.334926063e-1	8.977884495e0	9.532891095e-1	9.050551531e0
1.142782488e1	7.948982701e-1	9.192956196e0	1.136761800e0	9.297017493e0
1.143780588e1	1.176365357e0	9.554220568e0	1.145877682e0	9.694328330e0
1.144778688e1	1.568741886e0	9.848009241e0	9.568535721e-1	1.001797414e1
1.145776688e1	1.984455238e0	1.004334600e1	5.333515099e-1	1.025140602e1
1.146774788e1	2.423246672e0	1.030231217e1	-1.019099522e-1	1.058395702e1
1.147772888e1	2.918945256e0	1.057311310e1	-8.731471717e-1	1.100333349e1
1.148770988e1	3.375192676e0	1.087969548e1	-1.747957292e0	1.152454138e1
1.149769088e1	3.668342248e0	1.152229629e1	-2.800401145e0	1.241218326e1
1.150767088e1	3.847874281e0	1.234446627e1	-3.729588032e0	1.345740729e1
1.151765188e1	3.782122633e0	1.351711133e1	-4.226125399e0	1.465867956e1
1.152763288e1	3.876314553e0	1.454798949e1	-4.340372976e0	1.566871565e1
1.153761387e1	3.972429037e0	1.489704604e1	-4.422286620e0	1.603928902e1
1.154759488e1	3.960137898e0	1.525244098e1	-4.639918233e0	1.642706575e1
1.155757588e1	3.999258109e0	1.604223258e1	-4.553328570e0	1.714876359e1
1.156755588e1	4.105833847e0	1.664694695e1	-3.719941880e0	1.754470524e1
1.157753688e1	4.098036878e0	1.682792997e1	-2.052321239e0	1.744090467e1
1.158751788e1	4.651111265e0	1.623128593e1	-2.590304840e-1	1.688652053e1
1.159749888e1	5.581568459e0	1.465918014e1	1.494546567e0	1.575687591e1
1.160747988e1	5.843698552e0	1.243418712e1	2.802081050e0	1.402175025e1
1.161746088e1	4.720347853e0	9.219315444e0	3.517137637e0	1.093835994e1
1.162744088e1	3.279617598e0	5.038692493e0	4.305500182e0	7.394703878e0
1.163742188e1	2.156954824e0	9.899979293e-1	5.436164578e0	5.931646933e0
1.164740288e1	1.029266075e0	-2.330155199e0	6.891184552e0	7.346933811e0
1.165738388e1	1.105144224e-1	-5.388693373e0	7.822852412e0	9.499855239e0
1.166736488e1	-7.477805293e-1	-7.938195757e0	7.395293478e0	1.087494796e1
1.167734588e1	-2.833364823e0	-1.002219078e1	5.739245061e0	1.189164404e1
1.168732588e1	-5.249970521e0	-1.181217318e1	3.232896883e0	1.332446051e1
1.169730688e1	-6.360852032e0	-1.296883780e1	7.863791692e-1	1.446615307e1
1.170728788e1	-5.846639117e0	-1.331688981e1	-8.312629813e-1	1.456755783e1
1.171726887e1	-4.557049446e0	-1.308784034e1	-1.301879641e0	1.391952423e1
1.172724988e1	-3.528745237e0	-1.254223781e1	-7.773691946e-1	1.305235899e1
1.173722988e1	-2.943813757e0	-1.154669672e1	-4.023001313e-2	1.191611779e1
1.174721088e1	-2.804571964e0	-1.080021311e1	3.005036151e-1	1.116246073e1
1.175719188e1	-2.792895074e0	-1.094924460e1	3.921517038e-1	1.130663536e1
1.176717288e1	-2.432078892e0	-1.192160031e1	2.268970373e-1	1.216926637e1
1.177715388e1	-1.733697102e0	-1.268454618e1	-1.439841771e-1	1.280328664e1
1.178713488e1	-1.097818832e0	-1.334522424e1	-4.069907677e-1	1.339648677e1
1.179711488e1	-7.241133392e-1	-1.369912229e1	-6.561289322e-1	1.373392868e1
1.180709588e1	-7.054250532e-1	-1.327401685e1	-1.069683857e0	1.333571788e1
1.181707688e1	-9.585296765e-1	-1.231314507e1	-1.556486707e0	1.244809108e1
1.182705788e1	-1.387495742e0	-1.109116588e1	-1.811645164e0	1.132347841e1
1.183703888e1	-2.261756516e0	-1.012209630e1	-1.349939661e0	1.045919276e1
1.184701988e1	-2.957270539e0	-9.580735352e0	-7.162311463e-1	1.005230948e1
1.185699988e1	-3.147561156e0	-8.931818960e0	-4.106593839e-1	9.479091322e0
1.186698088e1	-3.290642815e0	-8.540232682e0	-3.660684443e-1	9.159580258e0
1.187696188e1	-3.433099115e0	-8.305851721e0	-4.545976281e-1	8.998888895e0
1.188694288e1	-3.653233628e0	-8.253031483e0	-2.514840674e-1	9.028947271e0
1.189692387e1	-4.122860939e0	-9.496765827e0	5.289541845e-1	1.036659713e1
1.190690488e1	-4.433839256e0	-1.200031787e1	1.415727708e0	1.287131867e1
1.191688488e1	-4.219128913e0	-1.495439436e1	1.842091470e0	1.564698887e1
1.192686588e1	-3.842405380e0	-1.779443729e1	1.679048440e0	1.828182927e1
1.193684688e1	-3.756813545e0	-2.003439919e1	1.050550671e0	2.041064564e1
1.194682788e1	-4.243649504e0	-2.126423938e1	-9.580809027e-3	2.168355435e1
1.195680888e1	-5.262890528e0	-2.106244729e1	-1.040234867e0	2.173492101e1
1.196678888e1	-6.710213227e0	-1.962104314e1	-1.485577523e0	2.078988302e1
1.197676988e1	-8.165313308e0	-1.755189011e1	-1.484226816e0	1.941504873e1
1.198675088e1	-9.296897471e0	-1.552185261e1	-7.791444093e-1	1.810986684e1
1.199673188e1	-9.083877558e0	-1.384197094e1	2.419364414e-1	1.655824641e1
1.200671288e1	-7.440636297e0	-1.283234742e1	1.260428145e0	1.488693682e1
1.201669388e1	-4.885941585e0	-1.276460041e1	1.744351314e0	1.377861424e1
1.202667387e1	-1.588020887e0	-1.308905539e1	1.263031179e0	1.324539275e1
1.203665488e1	1.305337539e0	-1.309690703e1	8.214833669e-1	1.318740743e1
1.204663588e1	2.544375253e0	-1.268635765e1	8.043166727e-1	1.296396703e1
1.205661688e1	2.083562473e0	-1.195736656e1	1.081730656e0	1.218564684e1
1.206659788e1	-6.856825143e-2	-1.113255247e1	1.347646968e0	1.121403489e1
1.207657887e1	-2.845869094e0	-9.994023571e0	1.249565042e0	1.046617843e1
1.208655888e1	-4.870563993e0	-8.588595588e0	5.348610418e-1	9.887994949e0
1.209653988e1	-5.913094477e0	-7.279485279e0	-5.161290479e-1	9.392655717e0
1.210652088e1	-6.361583519e0	-5.972596913e0	-1.685937191e0	8.887296719e0
1.211650188e1	-6.022791751e0	-4.264331106e0	-2.800143868e0	7.892993471e0
1.212648288e1	-4.433292249e0	-2.647975928e0	-2.895828874e0	5.920446060e0
1.213646288e1	-2.388331340e0	-1.346086931e0	-2.101107628e0	3.454088864e0
1.214644388e1	-4.539721222e-1	-2.799553299e-1	-8.393971892e-1	9.945115966e-1
1.215642488e1	5.703341988e-1	6.444380093e-1	4.164071238e-1	9.560210975e-1
1.216640588e1	5.973300625e-1	1.681018952e0	1.046609429e0	2.068337307e0
1.217638688e1	-3.584764194e-1	3.236623313e0	6.356905746e-1	3.317881602e0
1.218636788e1	-1.891291989e0	5.315809584e0	-1.342194732e-1	5.643831304e0
1.219634788e1	-3.424429448e0	6.881099859e0	-4.632235137e-1	7.700053788e0
1.220632887e1	-4.291738760e0	7.873151915e0	-3.628128608e-1	8.974250711e0
1.221630988e1	-4.333952733e0	8.896097735e0	-7.301666692e-2	9.895909895e0
1.222629088e1	-3.946772917e0	1.015273221e1	5.485967360e-2	1.089302517e1
1.223627188e1	-3.379812269e0	1.107217295e1	-1.574912453e-1	1.157760547e1
1.224625288e1	-3.009560727e0	1.139701151e1	-9.347815025e-1	1.182468366e1
1.225623288e1	-2.838632580e0	1.144703561e1	-2.405034496e0	1.203647166e1
1.226621388e1	-2.563076110e0	1.156982831e1	-4.308346606e0	1.260920841e1
1.227619488e1	-2.127442903e0	1.198736044e1	-6.117606107e0	1.362526800e1
1.228617588e1	-1.505200486e0	1.238787834e1	-7.537812928e0	1.457888137e1
1.229615688e1	-3.809921466e-1	1.226431848e1	-7.860067016e0	1.457186729e1
1.230613788e1	1.000963213e0	1.145328395e1	-6.540872015e0	1.322734468e1
1.231611788e1	1.991531100e0	1.025516958e1	-3.886695700e0	1.114634930e1
1.232609900e1	2.707325751e0	9.338282309e0	-7.959739385e-1	9.755342317e0
1.233608000e1	3.230700084e0	8.542712486e0	1.874823160e0	9.323643147e0
1.234606100e1	3.372181068e0	7.777447028e0	3.771576303e0	9.278204311e0
1.235604200e1	2.879409893e0	7.167985309e0	4.486258668e0	8.932946409e0
1.236602200e1	1.954792751e0	6.742949449e0	3.740362696e0	7.954803270e0
1.237600300e1	1.183537844e0	6.428919470e0	1.728243989e0	6.761552681e0
1.238598400e1	3.368889378e-1	6.404621950e0	-1.139880339e-1	6.414489048e0
1.239596500e1	-7.806385191e-1	6.515393942e0	-1.131984771e0	6.658914644e0
1.240594600e1	-1.653564958e0	6.624380779e0	-1.733842844e0	7.044352972e0
1.241592700e1	-2.515740561e0	6.851132879e0	-1.959412490e0	7.556869034e0
1.242590700e1	-2.918661959e0	6.983865843e0	-1.796701435e0	7.779531207e0
1.243588800e1	-2.351781126e0	7.062084632e0	-1.340443783e0	7.563114659e0
1.244586900e1	-1.497452925e0	7.245209486e0	-3.183937562e-1	7.405187394e0
1.245585000e1	-6.507978795e-1	7.025840666e0	1.028506376e0	7.130483876e0
1.246583100e1	5.125927980e-1	6.675883639e0	1.492908031e0	6.859952488e0
1.247581100e1	1.626031443e0	6.796847913e0	9.659418994e-1	7.055080691e0
1.248579200e1	1.964965298e0	7.358143778e0	-2.241076961e-2	7.616027228e0
1.249577300e1	2.168918958e0	7.717500204e0	-4.095753832e-1	8.026940316e0
1.250575400e1	2.191265993e0	7.676292536e0	1.189395292e-1	7.983812395e0
1.251573500e1	2.022633317e0	7.448044719e0	1.338392433e0	7.832988573e0
1.252571600e1	1.743147664e0	7.526945293e0	2.510498532e0	8.123796656e0
1.253569600e1	1.351343578e0	7.892943571e0	3.457391372e0	8.722284264e0
1.254567700e1	1.207054030e0	8.346361815e0	4.129164530e0	9.389820802e0
1.255565800e1	1.470122454e0	8.896590071e0	4.400396984e0	1.003364682e1
1.256563900e1	1.456196433e0	8.968683901e0	4.299804409e0	1.005216976e1
1.257562000e1	1.029652138e0	8.886254532e0	3.799064648e0	9.718981188e0
1.258560100e1	2.842565417e-1	8.968102688e0	2.460727617e0	9.303915735e0
1.259558100e1	-2.137139779e-1	9.467440871e0	4.739565897e-1	9.481705815e0
1.260556200e1	5.842099339e-3	1.008453964e1	-1.263528485e0	1.016338910e1
1.261554300e1	7.947547209e-1	1.043317987e1	-2.428328926e0	1.074149239e1
1.262552400e1	1.716542541e0	1.077273002e1	-2.837141540e0	1.127153949e1
1.263550500e1	2.706449546e0	1.119357518e1	-2.385791456e0	1.176065455e1
1.264548500e1	3.508997436e0	1.147336328e1	-1.771172492e0	1.212799159e1
1.265546600e1	3.861918416e0	1.153456141e1	-1.624502835e0	1.227190003e1
1.266544700e1	4.105203517e0	1.130883550e1	-1.993133383e0	1.219487749e1
1.267542800e1	4.664550213e0	1.080559021e1	-2.761554583e0	1.208904430e1
1.268540900e1	5.567034035e0	1.024691799e1	-3.883355770e0	1.229112071e1
1.269539000e1	6.917946673e0	1.001457420e1	-5.087989783e0	1.319232059e1
1.270537000e1	8.142479346e0	1.018458316e1	-5.836639209e0	1.428607928e1
1.271535100e1	9.022784679e0	1.061710989e1	-5.726927317e0	1.506424118e1
1.272533200e1	9.464138364e0	1.069923988e1	-4.422640377e0	1.495337410e1
1.273531300e1	9.108756291e0	1.012616129e1	-2.357383343e0	1.382265676e1
1.274529400e1	7.946287719e0	8.687955569e0	-5.629822022e-1	1.178732410e1
1.275527400e1	6.679300168e0	6.536797090e0	4.766147339e-1	9.357880558e0
1.276525500e1	5.026501633e0	4.710877118e0	9.582229900e-1	6.955305399e0
1.277523600e1	3.125805128e0	3.252904301e0	1.560347039e0	4.773544487e0
1.278521700e1	1.667617426e0	6.067222989e-1	2.287851763e0	2.895397298e0
1.279519800e1	8.379770467e-1	-3.303511367e0	3.315111659e0	4.754509249e0
1.280517900e1	7.960972416e-1	-8.172504213e0	3.898142209e0	9.089505411e0
1.281515900e1	1.412572696e0	-1.321440098e1	3.296225737e0	1.369236499e1
1.282514000e1	2.156217782e0	-1.605663077e1	2.248108238e0	1.635599760e1
1.283512100e1	1.584942474e0	-1.698185090e1	1.943621500e0	1.716604111e1
1.284510200e1	-1.500790808e0	-1.697730294e1	3.317904289e0	1.736345809e1
1.285508300e1	-6.075748229e0	-1.687656243e1	5.413002588e0	1.873589264e1
1.286506400e1	-1.020039637e1	-1.811510328e1	7.283330408e0	2.202843514e1
1.287504400e1	-1.230963557e1	-1.991311390e1	7.804493909e0	2.467730452e1
1.288502500e1	-1.193380462e1	-2.090395968e1	6.300973620e0	2.488158941e1
1.289500600e1	-9.538081083e0	-2.110618446e1	4.332999929e0	2.356312589e1
1.290498700e1	-6.604168709e0	-2.058532619e1	4.023139015e0	2.198991465e1
1.291496800e1	-4.706971178e0	-1.978477921e1	5.303550897e0	2.101715296e1
1.292494900e1	-4.201310985e0	-1.950780129e1	7.051229861e0	2.116424267e1
1.293492900e1	-3.958839816e0	-1.881742989e1	8.089225245e0	2.086153507e1
1.294491000e1	-3.852040130e0	-1.814716590e1	8.304205729e0	2.032529646e1
1.295489100e1	-4.054653461e0	-1.831840629e1	7.927346249e0	2.036779424e1
1.296487200e1	-4.432279219e0	-1.863737892e1	7.038181214e0	2.040913979e1
1.297485300e1	-5.669335166e0	-1.899826088e1	6.258343910e0	2.079043401e1
1.298483300e1	-7.466411408e0	-1.969076066e1	6.012997080e0	2.190044494e1
1.299481400e1	-8.982541217e0	-2.055374421e1	6.017939147e0	2.322408317e1
1.300479500e1	-9.622393840e0	-2.112513412e1	5.221155442e0	2.379332299e1
1.301477600e1	-9.622566918e0	-2.089336920e1	3.702581497e0	2.329883646e1
1.302475700e1	-9.271802976e0	-1.987012050e1	2.223420124e0	2.203931977e1
1.303473800e1	-8.151940141e0	-1.846535033e1	1.173717445e0	2.021882547e1
1.304471800e1	-6.602953073e0	-1.707542506e1	6.275524199e-1	1.831837745e1
1.305469900e1	-5.029354489e0	-1.567720611e1	6.480752698e-1	1.647692932e1
1.306468000e1	-3.563212527e0	-1.376939296e1	1.306776685e0	1.428286846e1
1.307466100e1	-1.823365616e0	-1.174155986e1	2.257829819e0	1.209490329e1
1.308464200e1	5.585204843e-1	-1.005988661e1	3.179367962e0	1.056511450e1
1.309462300e1	2.966921953e0	-8.358350362e0	3.553213788e0	9.554578738e0
1.310460300e1	4.909081357e0	-6.807184621e0	3.106658421e0	8.949199337e0
1.311458400e1	6.157651348e0	-5.578908561e0	2.099094578e0	8.570127706e0
1.312456500e1	6.500609257e0	-4.629130704e0	6.985434651e-1	8.010913479e0
1.313454600e1	6.439438026e0	-4.056194787e0	-6.564996457e-1	7.638721753e0
1.314452700e1	6.411847354e0	-3.445702788e0	-1.963977996e0	7.539354334e0
1.315450700e1	6.333370119e0	-2.186283873e0	-3.115585949e0	7.389065573e0
1.316448800e1	6.538444251e0	-1.596722567e-1	-4.079491264e0	7.708371905e0
1.317446900e1	7.146231328e0	2.041129668e0	-4.498026774e0	8.687178907e0
1.318445000e1	7.414889252e0	4.039619685e0	-4.340394026e0	9.494110286e0
1.319443100e1	7.298522059e0	5.885022579e0	-3.881820291e0	1.014743533e1
1.320441200e1	7.119072765e0	7.610576849e0	-3.495386872e0	1.099180633e1
1.321439200e1	6.711949266e0	9.244672480e0	-3.316178775e0	1.189585112e1
1.322437300e1	6.098709075e0	1.101322366e1	-3.530988229e0	1.307490825e1
1.323435400e1	5.218451689e0	1.282717029e1	-4.193882098e0	1.446918045e1
1.324433500e1	3.851476750e0	1.428622835e1	-5.066242234e0	1.563959731e1
1.325431600e1	2.202998723e0	1.508856925e1	-5.766955601e0	1.630263483e1
1.326429600e1	8.215779456e-1	1.501925636e1	-5.991174102e0	1.619096103e1
1.327427700e1	2.448208728e-1	1.426410249e1	-5.738213028e0	1.537698429e1
1.328425800e1	6.650213778e-1	1.340292223e1	-5.109768323e0	1.435932833e1
1.329423900e1	1.772942444e0	1.236459940e1	-3.830881687e0	1.306530894e1
1.330422000e1	2.981785283e0	1.126102633e1	-2.128019000e0	1.184188424e1
1.331420100e1	3.878247350e0	1.017406870e1	-4.776042290e-1	1.089865047e1
1.332418100e1	4.539882313e0	9.226326256e0	7.421695411e-1	1.030953167e1
1.333416192e1	4.992857339e0	8.442223992e0	1.673309398e0	9.949861038e0
1.334414292e1	4.981945265e0	7.862343337e0	2.111772657e0	9.544412246e0
1.335412392e1	4.310349570e0	7.520798115e0	1.946211670e0	8.884213953e0
1.336410492e1	3.227211343e0	7.407012468e0	1.192697507e0	8.167083573e0
1.337408592e1	2.216897847e0	7.146448259e0	1.045873922e-1	7.483134190e0
1.338406592e1	1.406609121e0	6.768530433e0	-9.641463657e-1	6.980052410e0
1.339404692e1	8.923763251e-1	6.471204779e0	-1.894869462e0	6.801717215e0
1.340402792e1	7.402221259e-1	6.204868784e0	-2.589920093e0	6.764318998e0
1.341400892e1	8.426668060e-1	6.018678235e0	-3.066451796e0	6.807180155e0
1.342398992e1	1.000379953e0	5.930550170e0	-3.241953050e0	6.832455265e0
1.343396992e1	1.229318619e0	6.120520944e0	-3.219699132e0	7.024134352e0
1.344395092e1	1.466067118e0	6.584831382e0	-3.023888159e0	7.392784098e0
1.345393192e1	1.611998710e0	7.042789990e0	-2.594653999e0	7.676695907e0
1.346391292e1	1.745820427e0	7.522332425e0	-2.092788210e0	8.000820993e0
1.347389392e1	1.907084295e0	8.087426056e0	-1.714634156e0	8.484303213e0
1.348387492e1	2.060691820e0	8.582067171e0	-1.313469408e0	8.923201757e0
1.349385492e1	2.286710094e0	8.943009362e0	-9.001652549e-1	9.274521927e0
1.350383592e1	2.655318276e0	9.202595916e0	-5.066068572e-1	9.591409555e0
1.351381692e1	2.970080327e0	9.404644114e0	-1.243632603e-1	9.863274014e0
1.352379792e1	3.198764639e0	9.727526777e0	1.797724991e-1	1.024154239e1
1.353377892e1	3.066689778e0	1.005908554e1	4.149143296e-1	1.052434996e1
1.354375892e1	2.449956754e0	1.017014171e1	4.980295765e-1	1.047292241e1
1.355373992e1	1.913456299e0	1.025888958e1	3.889392436e-1	1.044305530e1
1.356372092e1	1.798914607e0	1.044929480e1	3.981939241e-2	1.060308640e1
1.357370192e1	1.844166209e0	1.048546567e1	-4.384822632e-1	1.065543083e1
1.358368292e1	1.927426466e0	1.044705181e1	-8.506377304e-1	1.065736594e1
1.359366392e1	1.943292301e0	1.031189459e1	-1.107791404e0	1.055171819e1
1.360364392e1	2.054804843e0	1.021469047e1	-1.343709453e0	1.050560229e1
1.361362492e1	2.225350290e0	1.006846447e1	-1.553853852e0	1.042787718e1
1.362360592e1	2.594932911e0	9.813887229e0	-1.653521397e0	1.028494980e1
1.363358692e1	3.047318830e0	9.313444507e0	-1.621523678e0	9.932559573e0
1.364356792e1	3.358942679e0	8.804798725e0	-1.576483307e0	9.554699165e0
1.365354892e1	3.391339178e0	8.296602010e0	-1.470908174e0	9.082860628e0
1.366352892e1	2.996476997e0	7.532615923e0	-1.168256292e0	8.190482269e0
1.367350992e1	2.352337488e0	6.343867625e0	-7.113406813e-1	6.803245819e0
1.368349092e1	1.504209090e0	4.483268402e0	-4.174093366e-2	4.729067863e0
1.369347192e1	6.479486775e-1	1.852394995e0	1.098885949e0	2.249167632e0
1.370345292e1	5.725798219e-2	-1.011488201e0	2.528481059e0	2.723894881e0
1.371343292e1	-1.066816017e0	-2.912764165e0	4.085781698e0	5.129902882e0
1.372341392e1	-3.143674804e0	-4.257033781e0	5.315866302e0	7.500897441e0
1.373339492e1	-5.400052174e0	-6.030801267e0	5.869782397e0	9.999273613e0
1.374337592e1	-6.689397140e0	-8.323314430e0	5.826170939e0	1.216428646e1
1.375335692e1	-6.524128513e0	-1.104905306e1	5.134905503e0	1.382074821e1
1.376333792e1	-4.927215911e0	-1.397848004e1	3.989056472e0	1.534887398e1
1.377331792e1	-2.802546196e0	-1.605560750e1	2.205473996e0	1.644691196e1
1.378329892e1	-1.291863361e0	-1.646996693e1	4.168480039e-2	1.652060711e1
1.379327992e1	-2.374303431e0	-1.618430940e1	-1.352187477e0	1.641333599e1
1.380326092e1	-5.551692696e0	-1.676260604e1	-2.223149983e0	1.779743378e1
1.381324192e1	-8.821001945e0	-1.759993317e1	-3.156262690e0	1.993814728e1
1.382322292e1	-1.106774661e1	-1.790571682e1	-4.063548538e0	2.143879980e1
1.383320292e1	-1.231755037e1	-1.833764947e1	-4.092766782e0	2.246646780e1
1.384318392e1	-1.265699059e1	-1.881031032e1	-3.125040312e0	2.288652578e1
1.385316492e1	-1.170153567e1	-1.902342964e1	-1.631408250e0	2.239371128e1
1.386314592e1	-9.983677508e0	-1.879222956e1	5.984727547e-2	2.127969197e1
1.387312692e1	-8.891971940e0	-1.790468654e1	1.624350661e0	2.005700577e1
1.388310692e1	-8.593908952e0	-1.679937217e1	3.195813257e0	1.913863628e1
1.389308792e1	-8.515883707e0	-1.592582505e1	4.467892563e0	1.860414585e1
1.390306892e1	-8.543893624e0	-1.514755246e1	5.153049998e0	1.813836784e1
1.391304992e1	-8.249381651e0	-1.458695299e1	5.080704737e0	1.751128367e1
1.392303092e1	-7.592872649e0	-1.442081138e1	4.574653366e0	1.692746199e1
1.393301192e1	-6.646883204e0	-1.449002721e1	3.863126743e0	1.640322203e1
1.394299192e1	-5.323786356e0	-1.487612587e1	3.074805129e0	1.609646697e1
1.395297292e1	-3.961635077e0	-1.511778428e1	2.144482713e0	1.577468732e1
1.396295392e1	-2.866626125e0	-1.498398712e1	9.779550040e-1	1.528704718e1
1.397293492e1	-2.256917068e0	-1.443262158e1	-3.411248070e-1	1.461200214e1
1.398291592e1	-1.881137276e0	-1.312301602e1	-1.748775463e0	1.337200219e1
1.399289592e1	-1.856401507e0	-1.129755505e1	-2.860890591e0	1.180108773e1
1.400287692e1	-2.065823044e0	-9.180116880e0	-3.308305500e0	9.974319829e0
1.401285792e1	-2.279587601e0	-6.843820351e0	-2.897652621e0	7.773724161e0
1.402283892e1	-2.342652160e0	-4.451554273e0	-1.902914354e0	5.378237409e0
1.403281992e1	-2.025169985e0	-2.024593742e0	-8.228263262e-1	2.979485937e0
1.404280092e1	-1.550133122e0	4.642326701e-1	-1.166803113e-1	1.622355992e0
1.405278092e1	-1.055436459e0	2.923168700e0	2.086333323e-1	3.114865846e0
1.406276192e1	-2.269348249e-1	5.297994872e0	1.342295596e-1	5.304551504e0
1.407274292e1	7.676233479e-1	7.438882717e0	-1.741411918e-1	7.480410873e0
1.408272392e1	1.887195868e0	9.234386643e0	-6.897774656e-1	9.450460193e0
1.409270492e1	2.940658307e0	1.047646798e1	-1.202681043e0	1.094761592e1
1.410268492e1	3.857779756e0	1.141423975e1	-1.903395141e0	1.219796076e1
1.411266592e1	4.724475988e0	1.215302141e1	-2.645548164e0	1.330471826e1
1.412264692e1	5.542038943e0	1.273470009e1	-3.219928051e0	1.425674292e1
1.413262792e1	6.188710003e0	1.302625161e1	-3.495092465e0	1.483910489e1
1.414260892e1	6.572891368e0	1.291412307e1	-3.355497208e0	1.487403231e1
1.415258992e1	6.577324727e0	1.258211349e1	-2.865214315e0	1.448379209e1
1.416256992e1	6.262908247e0	1.226219828e1	-2.181549967e0	1.394075632e1
1.417255092e1	5.725542111e0	1.192504783e1	-1.491546214e0	1.331214890e1
1.418253192e1	5.206861339e0	1.164259925e1	-1.020189589e0	1.279462032e1
1.419251292e1	4.830857306e0	1.131389685e1	-7.262909885e-1	1.232351179e1
1.420249392e1	4.331669688e0	1.093739931e1	-4.892328791e-1	1.177409932e1
1.421247392e1	3.815406739e0	1.073428926e1	-4.704470909e-1	1.140191278e1
1.422245492e1	3.594900343e0	1.063403290e1	-6.132173860e-1	1.124197490e1
1.423243592e1	3.770546316e0	1.043550823e1	-6.936551929e-1	1.111746415e1
1.424241692e1	4.039460641e0	9.990073192e0	-7.529624780e-1	1.080211818e1
1.425239792e1	4.087985806e0	9.366796841e0	-1.008725538e0	1.026966593e1
1.426237892e1	4.068635031e0	8.945059395e0	-1.438801698e0	9.931667983e0
1.427235892e1	4.241984802e0	8.925282943e0	-2.012919337e0	1.008498661e1
1.428233992e1	4.589633932e0	8.958567048e0	-2.524805499e0	1.037763489e1
1.429232092e1	4.899045488e0	8.838514355e0	-2.761330050e0	1.047592126e1
1.430230192e1	5.032766340e0	8.638236110e0	-2.753524017e0	1.036965547e1
1.431228292e1	5.124645978e0	8.681300268e0	-2.739857905e0	1.044671202e1
1.432226292e1	5.084148163e0	8.933232232e0	-2.656208223e0	1.061633848e1
1.433224375e1	4.881311175e0	9.273940718e0	-2.499909225e0	1.077416917e1
1.434222475e1	4.662185599e0	9.569951917e0	-2.424869129e0	1.091787271e1
1.435220575e1	4.622111707e0	9.828699396e0	-2.508308750e0	1.114714588e1
1.436218675e1	4.555267507e0	1.006272368e1	-2.699053695e0	1.137074143e1
1.437216775e1	4.348603809e0	1.013087415e1	-2.801154267e0	1.137503544e1
1.438214775e1	3.918062211e0	1.004738292e1	-2.824614465e0	1.114807436e1
1.439212875e1	3.179589864e0	9.919417777e0	-2.579115608e0	1.073109864e1
1.440210975e1	2.162446821e0	9.562023677e0	-2.043922736e0	1.001429444e1
1.441209075e1	1.560859839e0	8.703448352e0	-1.182057183e0	8.920961598e0
1.442207175e1	1.328900794e0	7.649125788e0	-3.120425105e-2	7.763766891e0
1.443205175e1	1.093644212e0	6.437503182e0	9.323864099e-1	6.595972203e0
1.444203275e1	5.161006889e-1	4.498003385e0	1.704800162e0	4.837844351e0
1.445201375e1	-3.024647713e-2	1.385212405e0	2.481779348e0	2.842350609e0
1.446199475e1	-3.194202349e-1	-1.953773435e0	2.944525071e0	3.548166825e0
1.447197575e1	-8.269699556e-1	-5.515655136e0	3.956886261e0	6.838368210e0
1.448195675e1	-1.852096202e0	-9.951895552e0	5.864232219e0	1.169870527e1
1.449193675e1	-2.219595753e0	-1.491214823e1	7.937016374e0	1.703804564e1
1.450191775e1	-1.710750874e0	-1.893400934e1	8.633818538e0	2.087980366e1
1.451189875e1	-6.546384770e-1	-2.169781744e1	7.218526887e0	2.287642812e1
1.452187975e1	7.003064007e-2	-2.398422611e1	4.486165112e0	2.440028040e1
1.453186075e1	9.837911099e-2	-2.619570154e1	2.188483595e0	2.628714359e1
1.454184175e1	-1.071034491e-1	-2.773178380e1	6.051446470e-1	2.773859232e1
1.455182175e1	-4.515383649e-1	-2.826759692e1	-9.397601143e-2	2.827135925e1
1.456180275e1	-1.497240379e0	-2.888993479e1	2.415502328e-1	2.892971496e1
1.457178375e1	-3.021752172e0	-2.852331203e1	7.881127225e-1	2.869375258e1
1.458176475e1	-3.912629271e0	-2.699923995e1	9.126345885e-1	2.729652959e1
1.459174575e1	-4.025955327e0	-2.505123304e1	8.198058008e-1	2.538591488e1
1.460172575e1	-3.075080240e0	-2.258143229e1	5.981232373e-1	2.279769625e1
1.461170675e1	-1.813620354e0	-1.958128442e1	4.711883716e-1	1.967073808e1
1.462168775e1	-9.009427884e-1	-1.625197806e1	6.549536419e-1	1.629010291e1
1.463166875e1	-4.220499793e-1	-1.274337502e1	1.037246355e0	1.279248267e1
1.464164975e1	-4.440170914e-2	-9.287881649e0	1.401494561e0	9.393130684e0
1.465163075e1	4.113437274e-1	-6.214341273e0	1.330442120e0	6.368462716e0
1.466161075e1	6.519879341e-1	-3.223181734e0	6.692669680e-1	3.355876492e0
1.467159175e1	6.324535561e-1	2.125217307e-1	-5.570086867e-1	8.691499661e-1
1.468157275e1	3.571131411e-1	3.685394776e0	-2.047461764e0	4.231047639e0
1.469155375e1	7.014904618e-2	6.457683678e0	-3.389336214e0	7.293435359e0
1.470153475e1	-1.448051262e-1	8.676323118e0	-4.346657563e0	9.705306968e0
1.471151475e1	-7.791113725e-1	1.034674048e1	-5.163406586e0	1.158977225e1
1.472149575e1	-1.040578099e0	1.134627405e1	-5.688692958e0	1.273506832e1
1.473147675e1	-3.639874202e-1	1.185246634e1	-5.565688591e0	1.309924939e1
1.474145775e1	6.959850159e-1	1.201916929e1	-4.760308895e0	1.294624912e1
1.475143875e1	1.758739265e0	1.193326901e1	-3.251796838e0	1.249280816e1
1.476141975e1	2.261583439e0	1.211588224e1	-1.594271414e0	1.242783422e1
1.477139975e1	2.437403366e0	1.243272414e1	-1.813367754e-4	1.266939481e1
1.478138075e1	2.390687037e0	1.256210665e1	1.474807536e0	1.287233333e1
1.479136175e1	2.404416299e0	1.251326603e1	2.612078117e0	1.300715175e1
1.480134275e1	2.649859900e0	1.235608352e1	3.399028559e0	1.308617410e1
1.481132375e1	2.835694062e0	1.177567369e1	3.773650310e0	1.268653177e1
1.482130375e1	2.825659070e0	1.108799318e1	3.321099207e0	1.191459785e1
1.483128475e1	2.818981258e0	1.043859205e1	2.334715442e0	1.106172480e1
1.484126575e1	2.720028242e0	9.714495088e0	1.195993510e0	1.015875824e1
1.485124675e1	2.633637970e0	9.200300884e0	2.066815317e-2	9.569849136e0
1.486122775e1	2.530548635e0	8.896180766e0	-9.839396292e-1	9.301281944e0
1.487120875e1	2.483606603e0	8.722333689e0	-1.687907556e0	9.224773095e0
1.488118875e1	2.294782760e0	8.603104869e0	-2.174331141e0	9.165541839e0
1.489116975e1	2.092713512e0	8.693599302e0	-2.646338122e0	9.325300216e0
1.490115075e1	1.973934050e0	8.805498052e0	-2.936717284e0	9.489864066e0
1.491113175e1	2.047577685e0	8.789095443e0	-3.071868072e0	9.532950568e0
1.492111275e1	2.231085239e0	8.795578251e0	-3.153363640e0	9.606437444e0
1.493109275e1	2.366762862e0	8.829116126e0	-3.108224305e0	9.654839011e0
1.494107375e1	2.412855586e0	8.628770637e0	-2.772734460e0	9.378998409e0
1.495105475e1	2.381145550e0	8.364857728e0	-2.291178975e0	8.993897933e0
1.496103575e1	2.245187261e0	8.175362917e0	-1.798994860e0	8.666822207e0
1.497101675e1	1.860284058e0	7.847354000e0	-1.255532271e0	8.161984003e0
1.498099775e1	1.378735736e0	7.187417945e0	-6.147265524e-1	7.344234316e0
1.499097775e1	8.670941341e-1	6.320685754e0	2.301537171e-2	6.379925575e0
1.500095875e1	6.087802264e-1	5.379810868e0	4.118230529e-1	5.429786052e0
1.501093975e1	7.713386688e-1	3.824562017e0	8.738646251e-1	3.998234278e0
1.502092075e1	7.962387443e-1	1.326526240e0	1.443559431e0	2.116017919e0
1.503090175e1	3.709973547e-1	-2.504547236e0	2.049945515e0	3.257709703e0
1.504088175e1	-1.144709116e0	-7.977808304e0	2.923542337e0	8.573382302e0
1.505086275e1	-3.460915782e0	-1.417255497e1	3.329866815e0	1.496419946e1
1.506084375e1	-5.804636228e0	-1.913041029e1	2.734501271e0	2.017780704e1
1.507082475e1	-7.466722480e0	-2.160784516e1	1.488426140e0	2.290996136e1
1.508080575e1	-8.299349617e0	-2.235715181e1	2.961275589e-1	2.384971976e1
1.509078575e1	-7.994899131e0	-2.378245741e1	-7.575067878e-3	2.509031187e1
1.510076675e1	-6.825420333e0	-2.557425010e1	9.144729531e-1	2.648518250e1
1.511074775e1	-5.616980367e0	-2.673253441e1	2.198684063e0	2.740461779e1
1.512072875e1	-5.044531522e0	-2.672895123e1	3.706702614e0	2.745220896e1
1.513070975e1	-5.384616694e0	-2.528395222e1	4.736137382e0	2.628123540e1
1.514069075e1	-6.496862361e0	-2.295107690e1	5.080927516e0	2.438804985e1
1.515067075e1	-7.235398443e0	-2.020687334e1	4.533311212e0	2.193671879e1
1.516065175e1	-7.043609185e0	-1.701785104e1	3.355073285e0	1.872100962e1
1.517063275e1	-5.681257639e0	-1.368724894e1	2.207110485e0	1.498295060e1
1.518061375e1	-3.447278028e0	-1.069466502e1	1.443005115e0	1.132880618e1
1.519059475e1	-1.199179730e0	-7.868006365e0	1.025305025e0	8.024637474e0
1.520057575e1	7.198507190e-1	-5.026839602e0	9.175379173e-1	5.160346623e0
1.521055575e1	2.164201278e0	-1.963360530e0	6.167021804e-1	2.986448279e0
1.522053675e1	3.097372457e0	1.342060538e0	-5.298322901e-2	3.376040558e0
1.523051775e1	3.531371514e0	4.531861687e0	-9.235302901e-1	5.819043162e0
1.524049875e1	3.472237745e0	7.521147779e0	-1.815065786e0	8.480481276e0
1.525047975e1	3.180097987e0	1.000036429e1	-2.416953753e0	1.076856419e1
1.526045975e1	2.831654805e0	1.193770588e1	-2.550984653e0	1.253134523e1
1.527044075e1	2.743958265e0	1.320771060e1	-2.268875794e0	1.367920771e1
1.528042175e1	2.830944661e0	1.370701370e1	-1.934046684e0	1.412929612e1
1.529040275e1	2.952695970e0	1.369200857e1	-1.742633402e0	1.411475410e1
1.530038375e1	3.108518128e0	1.345599624e1	-1.615262918e0	1.390452423e1
1.531036475e1	3.280233017e0	1.312419014e1	-1.421246602e0	1.360236146e1
1.532034475e1	3.334999501e0	1.268159333e1	-1.111736448e0	1.315982481e1
1.533032588e1	3.486374559e0	1.219028923e1	-6.409747034e-1	1.269522775e1
1.534030688e1	3.588654932e0	1.161518633e1	4.724323668e-2	1.215702388e1
1.535028788e1	3.347181298e0	1.093614450e1	8.156602710e-1	1.146595747e1
1.536026888e1	3.023860093e0	1.039686165e1	1.227145209e0	1.089698799e1
1.537024888e1	2.612631555e0	1.007566240e1	1.239155974e0	1.048238159e1
1.538022988e1	2.131213042e0	9.857524999e0	7.313217136e-1	1.011176046e1
1.539021088e1	1.481209360e0	9.656591865e0	8.291921899e-2	9.769883480e0
1.540019188e1	1.084827196e0	9.401883643e0	-5.274686994e-1	9.478949800e0
1.541017288e1	1.391352858e0	9.113203098e0	-9.248261062e-1	9.265076190e0
1.542015388e1	2.227776592e0	8.832468334e0	-9.569173068e-1	9.159212638e0
1.543013388e1	3.496622096e0	8.276874089e0	-8.157725376e-1	9.022111483e0
1.544011488e1	4.745851654e0	7.796818854e0	-7.190017764e-1	9.155897319e0
1.545009588e1	5.408746984e0	7.631565430e0	-7.461433820e-1	9.383606172e0
1.546007688e1	5.442727493e0	7.552546742e0	-9.370457637e-1	9.356404203e0
1.547005788e1	5.059228499e0	7.656324295e0	-1.139601939e0	9.247366506e0
1.548003788e1	4.254727054e0	8.028561552e0	-1.409256740e0	9.194917479e0
1.549001888e1	3.407949656e0	8.349052704e0	-1.776556608e0	9.191134603e0
1.549999988e1	2.912519459e0	8.400791792e0	-1.934191695e0	9.099295019e0
1.550998088e1	2.632211834e0	8.112985405e0	-2.001354568e0	8.760964070e0
1.551996188e1	2.784976775e0	7.755283157e0	-1.933256140e0	8.463922955e0
1.552994188e1	3.095326517e0	7.087642227e0	-1.528404869e0	7.883637487e0
1.553992288e1	3.221392194e0	6.013304059e0	-9.943951086e-1	6.893911444e0
1.554990388e1	2.755793029e0	4.512005128e0	-1.428054515e-1	5.288948751e0
1.555988488e1	1.480530206e0	2.455337069e0	1.116221189e0	3.076783963e0
1.556986588e1	-1.951166162e-1	-3.923639578e-1	2.522865978e0	2.560639122e0
1.557984687e1	-1.555631259e0	-3.966981479e0	3.788569481e0	5.701770723e0
1.558982688e1	-2.736949792e0	-8.362237591e0	5.149873205e0	1.019505300e1
1.559980788e1	-4.069735477e0	-1.352306965e1	6.272694147e0	1.545260015e1
1.560978888e1	-5.296603235e0	-1.879509587e1	6.834576488e0	2.068867009e1
1.561976988e1	-6.425521653e0	-2.323462242e1	6.503311256e0	2.496854150e1
1.562975088e1	-6.930914628e0	-2.633409110e1	5.021595234e0	2.769004064e1
1.563973188e1	-6.703045710e0	-2.757247524e1	2.894927818e0	2.852284733e1
1.564971188e1	-5.855933851e0	-2.791044899e1	9.644110984e-1	2.853445658e1
1.565969288e1	-5.691963306e0	-2.770403993e1	-1.684189604e-1	2.828322188e1
1.566967388e1	-6.329182928e0	-2.673754430e1	-2.445545322e-1	2.747752971e1
1.567965488e1	-7.434096186e0	-2.512940797e1	2.422717792e-1	2.620709115e1
1.568963588e1	-8.505334160e0	-2.328972892e1	8.629098666e-1	2.480920788e1
1.569961588e1	-8.764635955e0	-2.058000990e1	1.142757754e0	2.239780226e1
1.570959687e1	-8.090956020e0	-1.717421260e1	1.063360605e0	1.901441252e1
1.571957788e1	-6.876081194e0	-1.377929113e1	1.141425466e0	1.544189783e1
1.572955888e1	-5.337048426e0	-1.036542701e1	1.544674600e0	1.176062000e1
1.573953988e1	-3.872210392e0	-7.019085377e0	2.010864333e0	8.264692869e0
1.574952088e1	-2.683722296e0	-3.951438410e0	2.016667110e0	5.184898948e0
1.575950088e1	-1.499530149e0	-8.838639486e-1	1.414623753e0	2.242981611e0
1.576948188e1	-3.842100155e-1	2.354956164e0	4.426108360e-2	2.386502653e0
1.577946288e1	4.419454229e-1	5.527375880e0	-1.839937064e0	5.842308471e0
1.578944388e1	9.169711760e-1	8.519306082e0	-3.840774007e0	9.389939149e0
1.579942488e1	9.722282410e-1	1.105202813e1	-5.453224415e0	1.236245162e1
1.580940488e1	1.084295684e0	1.265233153e1	-6.236786395e0	1.414760385e1
1.581938588e1	1.423485355e0	1.332630733e1	-6.082288340e0	1.471771073e1
1.582936688e1	2.351767092e0	1.319222483e1	-5.181373910e0	1.436705398e1
1.583934788e1	3.592017958e0	1.266028140e1	-3.830663586e0	1.370617750e1
1.584932888e1	4.575564069e0	1.221406167e1	-2.405954555e0	1.326302025e1
1.585930988e1	5.069838272e0	1.205191370e1	-1.141030340e0	1.312455082e1
1.586928988e1	4.822893398e0	1.188876703e1	-9.684231654e-2	1.283013876e1
1.587927088e1	4.118349812e0	1.158662502e1	8.480554537e-1	1.232598404e1
1.588925187e1	3.212669317e0	1.122199967e1	1.425307786e0	1.175950777e1
1.589923288e1	2.398642466e0	1.084041505e1	1.432628061e0	1.119466424e1
1.590921388e1	1.851484876e0	1.042958851e1	9.854803705e-1	1.063839670e1
1.591919388e1	1.401628755e0	9.776482590e0	1.690001737e-1	9.877891276e0
1.592917488e1	1.095405686e0	9.225527526e0	-1.027106260e0	9.346936344e0
1.593915588e1	9.712695900e-1	8.880230731e0	-2.135242943e0	9.184831238e0
1.594913688e1	8.913007298e-1	8.595871278e0	-2.951456360e0	9.132059717e0
1.595911788e1	8.304209822e-1	8.410208732e0	-3.473242005e0	9.136991844e0
1.596909788e1	9.034051971e-1	8.348736954e0	-3.664995595e0	9.162409202e0
1.597907888e1	1.146025617e0	8.372118800e0	-3.545926403e0	9.164024333e0
1.598905988e1	1.491488327e0	8.573637241e0	-3.164592633e0	9.259937338e0
1.599904088e1	1.826919846e0	9.036576506e0	-2.642381896e0	9.590596080e0
1.600902188e1	2.064390184e0	9.459578705e0	-2.083685119e0	9.903892153e0
1.601900288e1	2.236785397e0	9.660953304e0	-1.642838534e0	1.005167380e1
1.602898288e1	2.409588746e0	9.768805196e0	-1.347918717e0	1.015148057e1
1.603896388e1	2.575522201e0	9.710898466e0	-1.236187782e0	1.012240208e1
1.604894488e1	2.712299100e0	9.568709968e0	-1.309154162e0	1.003148351e1
1.605892588e1	2.809914565e0	9.356958901e0	-1.225949453e0	9.846382676e0
1.606890687e1	3.060403144e0	9.026336278e0	-1.116198531e0	9.596182218e0
1.607888688e1	3.389145595e0	8.424930852e0	-1.073782682e0	9.144330319e0
1.608886788e1	3.290515638e0	7.697391629e0	-1.066676561e0	8.438905732e0
1.609884888e1	3.071055894e0	6.898871886e0	-1.179134452e0	7.643047537e0
1.610882988e1	2.582188027e0	5.846466039e0	-1.259188681e0	6.514170422e0
1.611881088e1	1.695581150e0	4.341976283e0	-1.110558161e0	4.791773461e0
1.612879188e1	5.212222651e-1	1.975153195e0	-5.025335406e-1	2.103673632e0
1.613877188e1	-9.907835028e-1	-8.963132554e-1	7.983940279e-1	1.556426171e0
1.614875288e1	-2.145380260e0	-4.189989606e0	2.713664718e0	5.433474539e0
1.615873388e1	-2.753012971e0	-7.889446351e0	4.883873425e0	9.678567238e0
1.616871488e1	-3.081764777e0	-1.224977646e1	7.202466339e0	1.454062649e1
1.617869588e1	-3.348427924e0	-1.746302997e1	9.141372060e0	1.999335061e1
1.618867588e1	-3.342988552e0	-2.239264909e1	9.819542656e0	2.467852758e1
1.619865687e1	-3.136363446e0	-2.610611986e1	8.969341128e0	2.778156493e1
1.620863788e1	-2.954357456e0	-2.836886601e1	6.880493503e0	2.934044952e1
1.621861888e1	-3.366726785e0	-2.928321851e1	4.543998753e0	2.982431324e1
1.622859988e1	-5.076815754e0	-2.934300980e1	2.339659117e0	2.987072626e1
1.623858088e1	-7.971172299e0	-2.852218469e1	2.080845711e-1	2.961583877e1
1.624856088e1	-1.070772770e1	-2.712534802e1	-1.939857354e0	2.922675117e1
1.625854188e1	-1.205571088e1	-2.520358107e1	-3.925785213e0	2.821298377e1
1.626852288e1	-1.161642711e1	-2.262683008e1	-5.425775245e0	2.600680402e1
1.627850388e1	-9.689528646e0	-1.942357332e1	-5.847814992e0	2.248019364e1
1.628848488e1	-6.824316378e0	-1.596317940e1	-4.608765437e0	1.796204636e1
1.629846488e1	-4.337552864e0	-1.232643930e1	-2.090865646e0	1.323356301e1
1.630844588e1	-2.515146776e0	-8.434937192e0	7.921011083e-1	8.837508297e0
1.631842688e1	-1.356806046e0	-4.236153374e0	3.142390755e0	5.446148888e0
1.632840742e1	-8.842045489e-1	-1.677115935e-1	4.532625918e0	4.621108371e0
1.633838842e1	-6.839499843e-1	3.494694269e0	4.605938893e0	5.821971204e0
1.634836942e1	-4.390858421e-1	6.612727863e0	3.571885117e0	7.528567557e0
1.635834942e1	-3.075927794e-3	9.094204325e0	2.036919088e0	9.319527946e0
1.636833042e1	5.998392490e-1	1.076404691e1	3.984539060e-1	1.078810820e1
1.637831142e1	1.350099875e0	1.184086897e1	-1.063483908e0	1.196494654e1
1.638829242e1	2.184293481e0	1.255621851e1	-1.953132581e0	1.289358321e1
1.639827342e1	3.110800003e0	1.278930840e1	-2.147312180e0	1.333620769e1
1.640825342e1	3.908719822e0	1.244511088e1	-1.795058953e0	1.316742618e1
1.641823442e1	4.355326353e0	1.179883568e1	-1.076422700e0	1.262299793e1
1.642821542e1	4.320495366e0	1.124014241e1	-3.470534086e-1	1.204690532e1
1.643819642e1	3.923167415e0	1.080016282e1	1.819144438e-1	1.149207781e1
1.644817742e1	3.273682089e0	1.042433420e1	5.133048062e-1	1.093833716e1
1.645815742e1	2.681620222e0	1.004335419e1	7.690053374e-1	1.042359917e1
1.646813842e1	2.286930534e0	9.706091470e0	1.025130925e0	1.002442798e1
1.647811942e1	1.971412146e0	9.348116156e0	1.188988034e0	9.627431333e0
1.648810042e1	1.713280087e0	9.077492398e0	1.063585138e0	9.298785417e0
1.649808142e1	1.492563483e0	8.958829588e0	6.467558455e-1	9.105309795e0
1.650806242e1	1.265645615e0	8.972704446e0	9.839109778e-2	9.062061836e0
1.651804242e1	1.234358334e0	9.036534407e0	-3.902361560e-1	9.128793942e0
1.652802342e1	1.312328908e0	9.238845729e0	-7.469011080e-1	9.361428248e0
1.653800442e1	1.342266945e0	9.604952765e0	-8.719291967e-1	9.737405131e0
1.654798542e1	1.529412636e0	9.938581442e0	-8.137727898e-1	1.008844538e1
1.655796642e1	1.922411602e0	1.019681203e1	-6.802440190e-1	1.039871982e1
1.656794642e1	2.361817871e0	1.028809876e1	-4.959602469e-1	1.056736184e1
1.657792742e1	2.638729725e0	1.033707971e1	-3.347495878e-1	1.067380761e1
1.658790842e1	2.908231403e0	1.039155237e1	-2.328296771e-1	1.079334889e1
1.659788942e1	3.153854806e0	1.038209743e1	-9.892962635e-2	1.085101535e1
1.660787042e1	3.011551996e0	1.039273702e1	9.744269768e-2	1.082071732e1
1.661785142e1	2.683649790e0	1.034222994e1	2.591199464e-1	1.068788283e1
1.662783142e1	2.410140139e0	1.031143149e1	2.357269907e-1	1.059197630e1
