"Time (s)"	"Linear Acceleration x (m/s^2)"	"Linear Acceleration y (m/s^2)"	"Linear Acceleration z (m/s^2)"	"Absolute acceleration (m/s^2)"
1.434167500E-1	-1.306378722E0	-7.619609833E-1	9.514077902E-1	1.786725130E0
1.617608650E-1	-6.131587029E-1	-1.268980980E0	1.793123126E0	2.280694383E0
1.801049790E-1	9.866963625E-1	-2.460242271E0	6.418560743E-1	2.727332207E0
1.984490940E-1	2.302755833E0	-4.341737747E0	-1.636101961E0	5.179787710E0
2.167932080E-1	2.182507515E0	-5.468164444E0	-3.073612452E0	6.641630443E0
2.351373230E-1	1.005369186E0	-4.993638039E0	-1.692980409E0	5.367808745E0
2.534814370E-1	-1.809365034E0	-4.895079613E0	-1.075786233E0	5.328500939E0
2.718255520E-1	-4.735571861E0	-5.517501831E-1	2.542962074E0	5.403399414E0
2.901569060E-1	-7.969176292E0	1.262802124E0	1.420796752E0	8.192746999E0
3.085137810E-1	-1.027895164E1	-7.588176727E-1	-2.462671995E0	1.059704697E1
3.268579480E-1	-9.305948257E0	-1.777170181E0	-2.639278889E0	9.834876709E0
3.451892500E-1	-4.687088490E0	-3.150976181E0	-8.096433878E-1	5.705521170E0
3.635461770E-1	-2.491408825E0	-4.507899284E0	3.508245945E-2	5.150680020E0
3.818902920E-1	-1.055582166E0	-4.048287392E0	1.874553204E0	4.584412092E0
4.002215940E-1	-6.785353422E-1	-3.017310143E0	2.064554930E0	3.718461747E0
4.185785210E-1	1.624834538E0	-5.017970085E0	3.338819027E0	6.242421289E0
4.369226350E-1	5.660513878E0	-1.116976547E1	8.480529785E0	1.512363923E1
4.552539370E-1	7.176651955E0	-1.631432915E1	5.565383434E0	1.867177446E1
4.736108650E-1	4.979218483E0	-1.337085915E1	4.351385593E0	1.491667012E1
4.919549270E-1	3.220265865E0	-8.020445824E0	4.010787010E0	9.528067794E0
5.102862810E-1	2.062009335E0	-3.729955673E0	3.604311943E0	5.581712676E0
5.286431560E-1	1.345298529E0	1.080679893E-1	5.315704823E0	5.484361821E0
5.469872710E-1	2.323400021E0	3.060575962E0	6.482692242E0	7.535954590E0
5.653186250E-1	4.433385372E0	4.209689617E0	7.936317921E0	1.001806042E1
5.836755000E-1	6.334754467E0	5.189283371E0	9.287286758E0	1.238190096E1
6.020196150E-1	7.333835125E0	6.289001942E0	8.876181602E0	1.311957632E1
6.203509690E-1	7.749290466E0	7.550995350E0	6.981498718E0	1.287673708E1
6.387078440E-1	9.249517441E0	7.212750912E0	5.193225384E0	1.282758506E1
6.570519580E-1	1.107484245E1	5.862491608E0	4.995975971E0	1.349002295E1
6.753832600E-1	1.167256546E1	4.266909122E0	5.114173412E0	1.343912451E1
6.937401870E-1	9.422410965E0	3.593483210E0	5.176302433E0	1.133530136E1
7.120842500E-1	5.834023476E0	2.998951674E0	3.231323719E0	7.312386343E0
7.304156040E-1	1.816422462E0	2.187812805E0	-1.191953659E0	3.083288660E0
7.487724790E-1	-3.114638805E0	-6.360187531E-1	-5.426978588E0	6.289482597E0
7.671165940E-1	-8.559688568E0	-8.314294815E0	-1.149178982E1	1.656674379E1
7.854478960E-1	-9.819292068E0	-1.380189705E1	-9.152506828E0	1.925303197E1
8.038048230E-1	-4.000274181E0	-1.283416748E1	1.289369583E0	1.350483330E1
8.221489370E-1	2.234153032E0	-5.235033989E0	4.528143883E0	7.273314764E0
8.404802400E-1	5.537085533E0	7.829685211E-1	7.762861252E-1	5.645792775E0
8.588371150E-1	4.581493855E0	3.682918787E0	-2.234361649E0	6.288588769E0
8.771812290E-1	2.994330406E0	-1.255771637E0	6.560685158E0	7.320216303E0
8.955125310E-1	1.123021841E0	-1.136257744E1	6.412295341E0	1.309529975E1
9.138694060E-1	-1.158508778E0	-1.489993668E1	1.273717976E1	1.963634395E1
9.322135210E-1	2.516485691E0	-4.027783871E0	9.212553024E0	1.036469374E1
9.505448230E-1	5.855261803E0	4.970688820E-1	7.854561806E0	9.809450006E0
9.689017500E-1	8.255223274E0	1.665737152E0	7.213164330E0	1.108842330E1
9.872458120E-1	1.004663658E1	6.047382355E-1	4.410140038E0	1.098862822E1
1.005577167E0	7.009457588E0	-7.268314362E-1	2.636566639E0	7.524112124E0
1.023934042E0	3.068010807E0	-3.099966049E-1	3.601969242E0	4.741621097E0
1.042278104E0	4.286646843E-1	9.095373154E-1	6.611083984E0	6.687110212E0
1.060609458E0	-2.168813705E0	1.185590744E0	4.571386814E0	5.196821693E0
1.078966333E0	-4.499963760E0	7.133245468E-1	2.622339964E0	5.256916648E0
1.097310396E0	-5.020609856E0	1.428385735E0	3.001177311E0	6.021119031E0
1.115641750E0	-3.201022625E0	2.890518665E0	5.840894580E-1	4.352333224E0
1.133998625E0	4.230823517E-1	2.914734364E0	-9.789412022E-1	3.103707616E0
1.152342687E0	3.437433243E0	2.227325439E0	-7.741481066E-1	4.168480683E0
1.170674042E0	4.633292675E0	1.125405312E0	-1.072793245E0	4.887210193E0
1.189030917E0	4.792854309E0	-3.730573654E-1	-7.096031904E-1	4.859440391E0
1.207374979E0	3.370508909E0	-1.633797646E0	-5.437862873E-2	3.746008821E0
1.225706281E0	4.605650902E-1	-1.717500687E0	6.470800638E-1	1.892258286E0
1.244063156E0	-2.287866354E0	-1.693027496E0	3.304420710E-1	2.865286464E0
1.262407271E0	-4.022663116E0	-2.489551544E0	-1.821091056E0	5.069127940E0
1.280751333E0	-4.148053169E0	-2.619352341E0	-1.108062744E0	5.029428877E0
1.299095448E0	-4.615471840E0	-2.712180138E0	-1.191955805E0	5.484456221E0
1.317439562E0	-6.755508423E0	-2.146414757E0	1.614914179E0	7.269933849E0
1.335770865E0	-8.109053612E0	-1.636406898E0	-7.197837830E-1	8.303774245E0
1.354127740E0	-6.353295326E0	-2.027073860E0	-2.935008049E0	7.286128065E0
1.372471802E0	-3.887869358E0	-4.405681610E0	8.793587685E-1	5.941281885E0
1.390803104E0	-1.266937613E0	-7.988459587E0	7.753729820E-2	8.088672915E0
1.409159979E0	1.403705120E0	-8.289318085E0	3.677364588E-1	8.415367638E0
1.427504094E0	2.982739925E0	-5.227817535E0	1.988599658E0	6.338875472E0
1.445835396E0	5.126719475E0	-4.709567070E0	1.413880706E0	7.103684481E0
1.464192219E0	6.127869606E0	-8.654214859E0	5.039867401E0	1.174080424E1
1.482536333E0	4.991326332E0	-1.200078583E1	3.159096241E0	1.337580233E1
1.500867635E0	2.603651524E0	-1.140228653E1	-1.890158653E-2	1.169578970E1
1.519224510E0	3.081199408E0	-8.241694450E0	2.753257751E0	9.219530652E0
1.537568573E0	3.961738586E0	-5.074481010E0	5.788952351E0	8.657811471E0
1.555899875E0	4.322155952E0	-1.804757595E0	4.615406036E0	6.575724670E0
1.574256750E0	5.299136639E0	8.197584152E-1	5.125995636E0	7.418132126E0
1.592600812E0	6.936511517E0	3.640703678E0	6.385993004E0	1.010696898E1
1.610932115E0	7.534443855E0	6.176088810E0	6.066342831E0	1.147660370E1
1.629288990E0	7.487561226E0	7.316558361E0	5.566404343E0	1.185666297E1
1.647633052E0	7.143138885E0	8.667247772E0	5.351247311E0	1.244111992E1
1.665964354E0	8.112595558E0	8.377846718E0	5.443585396E0	1.286993179E1
1.684321229E0	1.035192394E1	6.007995129E0	5.055252075E0	1.299284066E1
1.702665292E0	1.085794926E1	4.371900082E0	4.495433331E0	1.253864001E1
1.721009406E0	9.286285400E0	3.801935911E0	3.923812151E0	1.077432666E1
1.739353469E0	6.526161194E0	3.347601175E0	2.054694891E0	7.617019407E0
1.757697531E0	2.367462635E0	2.024872303E0	-2.554204941E0	4.028517103E0
1.776028833E0	-4.614727974E0	-2.912613869E0	-7.553868294E0	9.318796061E0
1.794385708E0	-1.208424950E1	-1.131680202E1	-1.093248940E1	1.983981901E1
1.812729771E0	-1.199303055E1	-1.590573883E1	-5.555016041E0	2.068051046E1
1.831061073E0	-2.524768353E0	-1.033275986E1	-1.342916489E-2	1.063675523E1
1.849417896E0	7.995903969E0	-3.988048077E0	1.200548887E0	9.015560181E0
1.867761958E0	1.032270622E1	-1.143854141E0	-1.974256516E0	1.057186619E1
1.886093260E0	7.254356384E0	-3.471093178E0	2.765989780E0	8.504403204E0
1.904450135E0	4.612040520E0	-1.029958916E1	2.812109470E0	1.163015108E1
1.922794198E0	6.251988411E-1	-1.043810749E1	1.287550735E1	1.658685176E1
1.941125500E0	5.029938698E0	-2.319021702E0	7.477560043E0	9.305484896E0
1.959482323E0	6.446523190E0	1.763247013E0	6.505648613E0	9.326851834E0
1.977826437E0	6.005697250E0	3.120352745E0	7.718827248E0	1.026573401E1
1.996157687E0	7.495678902E0	9.241724014E-2	5.323847771E0	9.194405812E0
2.014514562E0	5.444327354E0	-2.968542099E0	4.151909828E0	7.462660233E0
2.032858625E0	1.559379578E0	-1.190734863E0	3.204456806E0	3.757400379E0
2.051189927E0	1.496124268E-1	5.693912506E-1	3.138751507E0	3.193485759E0
2.069546750E0	3.231477737E-2	1.311483383E0	2.621270657E0	2.931227177E0
2.087890812E0	3.016529083E-1	1.335627079E0	2.376010418E0	2.742320127E0
2.106234875E0	5.129117966E-1	1.975407124E0	2.531135082E0	3.251454539E0
2.124578937E0	8.106868267E-1	2.842273235E0	1.701506853E0	3.410404059E0
2.142923000E0	1.078156948E0	2.864099503E0	1.121404171E-1	3.062362460E0
2.161267062E0	1.432700872E0	1.809299469E0	-1.088336349E0	2.551601922E0
2.179611125E0	2.394042015E0	4.972047806E-1	-1.683207631E0	2.968473967E0
2.197955240E0	3.247185707E0	-3.920392990E-1	-1.758243561E0	3.713398746E0
2.216286490E0	2.926452637E0	-9.720430374E-1	-8.385124207E-1	3.195636991E0
2.234643312E0	1.161264300E0	-1.018764496E0	-2.508039474E-1	1.565029870E0
2.252987375E0	-1.616761923E0	-1.063929558E0	-1.005942225E0	2.181234737E0
2.271318677E0	-4.314416409E0	-2.995820999E0	-2.545330048E0	5.836766010E0
2.289675500E0	-5.347025871E0	-4.624877930E0	-2.503355980E0	7.499798177E0
2.308019562E0	-4.223799706E0	-3.686013222E0	-1.614578605E0	5.833870199E0
2.326350865E0	-6.109670639E0	-2.629819870E0	-1.272262454E0	6.772199024E0
2.344707687E0	-8.456167221E0	-2.071762085E0	-3.019760370E0	9.215091692E0
2.363051750E0	-8.488088608E0	-2.262506485E0	-4.021604538E0	9.661257002E0
2.381383000E0	-5.040811062E0	-3.136404991E0	7.621426582E-1	5.985622262E0
2.399739875E0	-1.955898523E0	-6.342674255E0	1.447722435E0	6.793449491E0
2.418083885E0	-1.304628849E-1	-7.876104355E0	3.934179544E-1	7.887003110E0
2.436415187E0	3.148261786E0	-8.188219070E0	-1.848270893E0	8.965187623E0
2.454772010E0	6.661599159E0	-9.879485130E0	3.894479513E0	1.253587255E1
2.473116073E0	7.863108635E0	-1.244193459E1	6.771163940E0	1.620119979E1
2.491447323E0	5.788973808E0	-1.365941525E1	1.248289227E0	1.488791687E1
2.509804146E0	3.393274546E0	-1.077486992E1	-4.410631657E-1	1.130516124E1
2.528148208E0	3.499998093E0	-7.144134521E0	2.462972164E0	8.327957528E0
2.546479458E0	3.903914452E0	-3.265741825E0	3.954950333E0	6.445715619E0
2.564836333E0	4.791986942E0	-4.538106918E-2	3.928093433E0	6.196379291E0
2.583180344E0	6.801128387E0	2.293323517E0	5.813464642E0	9.236398174E0
2.601511594E0	8.204163551E0	4.693907738E0	7.445792198E0	1.203249313E1
2.619868469E0	8.260450363E0	6.731859207E0	7.616993904E0	1.309853292E1
2.638212479E0	7.417048454E0	8.682772636E0	5.978865623E0	1.288991787E1
2.656543729E0	7.250398636E0	9.827426910E0	4.625151634E0	1.305904390E1
2.674900604E0	9.345446587E0	8.897603035E0	4.728828907E0	1.374287213E1
2.693244615E0	1.163960457E1	6.838762760E0	4.761123180E0	1.431493502E1
2.711575865E0	1.163390064E1	5.038571358E0	5.046370983E0	1.364553794E1
2.729932687E0	9.337356567E0	3.578296661E0	3.812674522E0	1.070172517E1
2.748276750E0	5.575286865E0	2.252472878E0	-1.474270821E-1	6.014914167E0
2.766608000E0	-1.097006798E-1	3.622517586E-1	-6.828291416E0	6.838773592E0
2.784964823E0	-8.463803291E0	-8.024568558E0	-1.409763145E1	1.829679970E1
2.803308833E0	-1.361669922E1	-2.034363365E1	-1.252920055E1	2.750015990E1
2.821640083E0	-6.900582790E0	-1.753231239E1	-1.984653234E0	1.894568207E1
2.839996906E0	5.851294041E0	-4.611711979E0	-1.612285376E0	7.622663147E0
2.858340969E0	1.013507080E1	-1.453117371E0	1.141393423E0	1.030213518E1
2.876672219E0	8.292924881E0	-2.692262173E0	9.305733681E0	1.275215896E1
2.895029042E0	5.199769020E0	-6.606287479E0	5.384185314E0	9.983490553E0
2.913373052E0	2.112012386E0	-5.994301319E0	1.165866661E1	1.327843183E1
2.931704302E0	5.071761131E0	-2.974291325E0	5.715791702E0	8.199966137E0
2.950061125E0	4.947952747E0	5.260901451E-1	1.038821316E1	1.151841916E1
2.968405135E0	5.387540340E0	1.034150124E-1	5.074563980E0	7.401856873E0
2.986749198E0	4.672422886E0	-1.473282337E0	4.928058624E0	6.948946559E0
3.005093208E0	1.639523983E0	-1.491670609E-1	4.766741753E0	5.043026536E0
3.023437271E0	4.608201981E-2	1.262255669E0	3.118848801E0	3.364911703E0
3.041781281E0	-1.769895554E-1	5.704841614E-1	2.278169394E0	2.355171600E0
3.060125292E0	5.366177559E-1	-4.798269272E-1	9.898203015E-1	1.223902253E0
3.078469302E0	1.901925325E0	-6.902027130E-2	3.545550704E-1	1.935921754E0
3.096800552E0	3.488016844E0	1.733130932E0	-1.829130054E-1	3.899161640E0
3.115157375E0	4.334655285E0	3.397024155E0	-2.989425659E-1	5.515285687E0
3.133501385E0	4.010984421E0	3.056361198E0	-8.239538074E-1	5.109622263E0
3.151832635E0	3.197424412E0	1.176228046E0	-2.707793951E0	4.351917206E0
3.170189458E0	2.100296974E0	-3.834400177E-1	-1.373740673E0	2.538786534E0
3.188533469E0	7.181115150E-1	-1.121599197E0	1.576352119E-2	1.331884904E0
3.206877479E0	-4.268724918E-1	-9.065847397E-1	-3.478758335E-1	1.060723154E0
3.225221542E0	-1.465549588E0	-5.318984985E-1	-1.191489220E0	1.962243147E0
3.243565552E0	-2.492177010E0	-1.843036652E0	-2.773550510E0	4.159364468E0
3.261896750E0	-3.630808353E0	-2.972617149E0	-2.021064520E0	5.109199919E0
3.280253573E0	-5.907165527E0	-3.965809822E0	-2.147569656E0	7.431978710E0
3.298597583E0	-8.332280159E0	-4.355945587E0	-1.882810950E0	9.588854555E0
3.316928833E0	-9.094475746E0	-3.545206070E0	-3.461730480E0	1.035671536E1
3.335285604E0	-6.862248421E0	-3.942926407E0	-4.833498001E0	9.273609058E0
3.353629667E0	-5.183764458E0	-4.201341629E0	-1.091316581E0	6.761187567E0
3.371960865E0	-3.383935452E0	-4.912503242E0	1.835584760E0	6.241240154E0
3.390317687E0	-1.423204064E0	-4.451795578E0	2.229930162E0	5.178472961E0
3.408661698E0	1.552352905E-1	-3.447509766E0	3.112652898E-1	3.465011928E0
3.426992896E0	3.557052135E0	-6.654147148E0	3.139352560E0	8.172259703E0
3.445349719E0	5.942324638E0	-1.371257877E1	6.165403366E0	1.616657779E1
3.463693729E0	5.467208862E0	-1.870921326E1	1.963307619E0	1.959029378E1
3.482024927E0	5.082052708E0	-1.506537056E1	-8.702199459E-1	1.592325132E1
3.500381750E0	6.549739838E0	-8.284717560E0	3.050195456E0	1.099269436E1
3.518725760E0	6.286407948E0	-4.081520081E0	4.939973354E0	8.976695817E0
3.537056958E0	5.232398987E0	-4.829206467E-1	4.348844528E0	6.820825481E0
3.555413781E0	4.830327034E0	2.719226837E0	5.423813820E0	7.755256940E0
3.573757792E0	5.320308208E0	4.612845421E0	7.014098167E0	9.938893068E0
3.592088990E0	6.569452763E0	5.983229637E0	8.468857765E0	1.227510889E1
3.610445760E0	7.660448551E0	8.140532494E0	7.850971222E0	1.365973976E1
3.628789771E0	8.659184456E0	1.010706615E1	4.946052551E0	1.419851040E1
3.647121021E0	1.045474052E1	1.078768635E1	4.351172924E0	1.563996426E1
3.665477792E0	1.252286720E1	9.230658531E0	4.959576607E0	1.632864538E1
3.683821802E0	1.240206909E1	6.669188976E0	5.022734165E0	1.495049357E1
3.702153000E0	9.366327286E0	5.216322422E0	4.526803017E0	1.163744181E1
3.720509823E0	5.922745228E0	4.201021671E0	2.329995155E0	7.626032490E0
3.738853833E0	2.029881001E0	1.462628365E0	-3.762094498E0	4.518080745E0
3.757185031E0	-6.444486618E0	-8.587252617E0	-1.443568707E1	1.799059133E1
3.775541802E0	-1.631283188E1	-2.410107040E1	-1.850156021E1	3.448590739E1
3.793885812E0	-1.193373299E1	-1.936687660E1	-3.874028683E0	2.307591798E1
3.812217010E0	2.917680740E0	-4.160926819E0	1.639990807E0	5.340013365E0
3.830573833E0	1.208785152E1	2.996740341E-1	5.312418938E-1	1.210323002E1
3.848917792E0	1.158371925E1	1.472749710E0	6.577117920E0	1.340186642E1
3.867249042E0	1.063588142E1	-4.882623672E0	3.146021366E0	1.211855759E1
3.885605812E0	1.884646416E0	-1.291048431E1	9.638496399E0	1.622137818E1
3.903949823E0	9.601731300E-1	-7.237513065E0	1.047789001E1	1.277065805E1
3.922281021E0	2.677937031E0	4.259829521E-1	8.484680176E0	8.907446654E0
3.940637792E0	2.137149572E0	3.021814346E0	7.459757805E0	8.327470009E0
3.958981802E0	4.066783905E0	2.184626102E0	5.985634327E0	7.559043645E0
3.977313000E0	4.743032455E0	-4.566788673E-1	5.926971436E0	7.604860476E0
3.995669771E0	2.819080830E0	-1.798696518E0	4.614051342E0	5.698420454E0
4.014013781E0	1.401053190E0	-2.261617661E0	3.576973200E0	4.457869643E0
4.032344979E0	1.064104319E0	-2.248667717E0	1.322784781E0	2.817549304E0
4.050701750E0	2.116869688E0	-6.865377426E-1	3.549485803E-1	2.253543841E0
4.069045760E0	3.275488377E0	2.237906933E0	1.275255203E0	4.166932610E0
4.087376958E0	3.846626043E0	3.994782448E0	1.467294455E0	5.736529590E0
4.105733729E0	3.107275486E0	4.367675781E0	1.900815010E0	5.687253325E0
4.124077740E0	1.692306519E0	2.816309452E0	3.282954693E-1	3.302011235E0
4.142408937E0	6.901788712E-2	1.371182442E0	-2.262513638E0	2.646483085E0
4.160765708E0	-8.309557438E-1	3.395843506E-1	-3.794011116E0	3.898759460E0
4.179109719E0	-6.896038055E-1	-5.622949600E-1	-2.478391171E0	2.633277772E0
4.197440917E0	4.920372963E-1	-1.316096306E0	-1.932830811E-1	1.418297760E0
4.215797687E0	2.669388056E-1	-2.751253128E0	-2.290085316E0	3.589587839E0
4.234141698E0	-1.653785229E0	-4.669651031E0	-4.565756798E0	6.736971239E0
4.252472896E0	-3.817067623E0	-4.153037071E0	-2.720197678E0	6.262363576E0
4.270829667E0	-6.817546844E0	-3.313494682E0	-6.932084560E-1	7.611749467E0
4.289173625E0	-1.005464268E1	-3.340638161E0	5.411028862E-2	1.059521735E1
4.307504875E0	-1.077517891E1	-3.673842430E0	-2.890182018E0	1.174541403E1
4.325861646E0	-6.206173420E0	-4.235221863E0	-5.041139603E0	9.048026373E0
4.344205604E0	-3.152243137E0	-4.137958527E0	-1.084781528E0	5.313764064E0
4.362536802E0	-2.143324375E0	-5.701193810E0	1.214333773E0	6.210640606E0
4.380893573E0	-7.419736385E-1	-4.472721100E0	3.101102829E0	5.492958918E0
4.399237583E0	8.372260332E-1	-2.421358109E0	2.242273331E0	3.404660366E0
4.417568781E0	3.120203495E0	-4.664511681E0	8.795046806E-2	5.612581790E0
4.435925552E0	4.647721767E0	-9.860642433E0	7.464217186E0	1.321166625E1
4.454269510E0	4.580758095E0	-1.347368050E1	4.676747799E0	1.497983247E1
4.472600708E0	3.021616936E0	-1.240148354E1	-4.500850439E-1	1.277221748E1
4.490957479E0	3.926635981E0	-8.159637451E0	1.428873301E0	9.167324166E0
4.509301490E0	5.566258430E0	-4.989033699E0	4.895181656E0	8.935126950E0
4.527632687E0	5.649861813E0	-1.914667130E0	3.535366535E0	6.934385716E0
4.545989406E0	5.494212627E0	5.289378166E-1	3.782477856E0	6.691284356E0
4.564333417E0	6.091308117E0	2.877060890E0	3.480369091E0	7.582511652E0
4.582664615E0	6.517352581E0	4.705537796E0	5.278122902E0	9.616472949E0
4.601021385E0	6.818990231E0	6.615833282E0	7.280374527E0	1.196961700E1
4.619365344E0	6.869571686E0	8.855469704E0	7.554314613E0	1.351584360E1
4.637696542E0	7.590712547E0	9.736006737E0	4.859509945E0	1.326738788E1
4.656053312E0	9.463127136E0	8.333352089E0	3.174249172E0	1.300274548E1
4.674397271E0	1.052526951E1	6.732763290E0	3.809839725E0	1.306239942E1
4.692728469E0	1.012035561E1	5.313637257E0	4.244343758E0	1.219306329E1
4.711085240E0	8.495813370E0	3.842969179E0	2.705870390E0	9.709221982E0
4.729429198E0	5.503266811E0	1.923681259E0	-9.282960892E-1	5.903238841E0
4.747760396E0	2.701764107E-1	-1.230151176E0	-5.037053108E0	5.192125887E0
4.766117167E0	-7.595019817E0	-8.196836472E0	-1.173706245E1	1.620589674E1
4.784461125E0	-1.189087486E1	-1.602707672E1	-1.205724335E1	2.331602904E1
4.802792323E0	-8.406370163E0	-1.304369736E1	-1.895675421E0	1.563325575E1
4.821149094E0	2.075572729E0	-3.709401131E0	-6.560106277E-1	4.300931160E0
4.839493052E0	8.104039192E0	1.127929688E-1	-1.654913187E0	8.272056041E0
4.857824250E0	7.482643127E0	-3.636901379E0	3.181169271E0	8.907122866E0
4.876181021E0	4.883991241E0	-1.061071014E1	1.130086231E1	1.625269298E1
4.894524979E0	2.336629152E0	-1.256153202E1	6.934864998E0	1.453768465E1
4.912856177E0	4.466555595E0	-1.827420235E0	7.122312546E0	8.603308643E0
4.931212948E0	7.593894482E0	3.791443348E0	7.037395477E0	1.102575218E1
4.949556906E0	8.487071991E0	6.310961723E0	7.654158592E0	1.305544992E1
4.967888104E0	9.315861702E0	2.663075447E0	6.884391785E0	1.188579406E1
4.986244875E0	5.886630058E0	-3.298228264E0	6.106709480E0	9.100693589E0
5.004588833E0	4.257407188E-1	-3.973289490E0	4.573187351E0	6.073082173E0
5.022920031E0	-3.192167282E0	-2.403815269E0	4.130315304E0	5.746978712E0
5.041276750E0	-4.950437546E0	-7.160930634E-1	7.477800250E-1	5.057548431E0
5.059620760E0	-3.861890793E0	1.782715797E0	-2.266453803E-1	4.259535683E0
5.077951906E0	6.735832691E-1	3.658774376E0	5.168337226E-1	3.755990076E0
5.096308677E0	4.156962872E0	4.208795071E0	5.259609222E-1	5.938933503E0
5.114652635E0	4.939758778E0	3.224674225E0	-1.158501506E0	6.011810574E0
5.132983833E0	4.035955906E0	1.318165779E0	-3.078827143E0	5.244585558E0
5.151340604E0	3.215786934E0	-3.377008438E-1	-2.618510246E0	4.160759951E0
5.169684562E0	1.584326029E0	-1.170797348E0	-1.305942178E0	2.363544027E0
5.188015760E0	-6.654763222E-2	-1.499564171E0	-6.068092585E-1	1.619054899E0
5.206372479E0	-9.759758711E-1	-8.701639175E-1	-1.140139222E0	1.734828980E0
5.224716437E0	-1.601344109E0	-9.867887497E-1	-2.881579876E0	3.441156429E0
5.243047635E0	-2.631293774E0	-2.455040932E0	-2.749405861E0	4.528815020E0
5.261404406E0	-5.073328018E0	-3.626646996E0	-1.560571551E0	6.428577539E0
5.279748365E0	-8.260289192E0	-3.779007912E0	1.153779030E-1	9.084414697E0
5.298079562E0	-1.049963474E1	-2.175963402E0	-1.733499527E0	1.086195963E1
5.316436281E0	-9.693978310E0	-1.662410736E0	-3.742607594E0	1.052349450E1
5.334780240E0	-5.947469711E0	-2.503371239E0	-4.473967552E0	7.852111129E0
5.353111437E0	-2.317091465E0	-2.788079262E0	3.544812202E-1	3.642520523E0
5.371468156E0	3.519922495E-1	-5.097216606E0	1.537016273E0	5.335535090E0
5.389812115E0	1.037414193E0	-5.076385498E0	3.403076649E0	6.198939313E0
5.408156125E0	6.269866228E-1	-2.678956985E0	3.976747990E0	4.835746822E0
5.426500083E0	2.158226728E0	-5.507004738E0	2.210819006E0	6.314488457E0
5.444844042E0	2.665322304E0	-1.213104725E1	1.609177709E0	1.252420469E1
5.463175187E0	2.506086349E0	-1.608489990E1	-9.247623384E-2	1.627922067E1
5.481531958E0	3.778043270E0	-1.284406090E1	5.573654771E-1	1.339978237E1
5.499875917E0	5.832482338E0	-7.384395599E0	3.460776567E0	1.002617190E1
5.518207062E0	6.217171669E0	-3.464873314E0	5.088589668E0	8.749418007E0
5.536563833E0	5.573565483E0	-4.881601334E-1	3.825675011E0	6.777810989E0
5.554907792E0	5.059874058E0	1.122732162E0	2.825221539E0	5.902942464E0
5.573238937E0	5.249244690E0	2.152569771E0	4.996022224E0	7.559653729E0
5.591595708E0	5.980763435E0	3.441910744E0	6.119515419E0	9.223055340E0
5.609939667E0	6.088728428E0	5.748523712E0	7.489130497E0	1.123410941E1
5.628270812E0	6.716954231E0	7.534505367E0	6.474588394E0	1.199193646E1
5.646627583E0	8.420632362E0	8.147053719E0	4.270589828E0	1.247074461E1
5.664971542E0	1.054945374E1	7.773363113E0	4.745992661E0	1.393702244E1
5.683302687E0	1.146674156E1	7.346323490E0	4.630585670E0	1.438391305E1
5.701659406E0	1.019765282E1	6.689600468E0	3.529991150E0	1.269660249E1
5.720003365E0	8.015817642E0	5.729876041E0	1.567313671E0	9.977037840E0
5.738334562E0	5.217909336E0	4.272691250E0	-2.076211929E0	7.056424330E0
5.756691281E0	-4.163823128E-1	-6.078505516E-1	-7.367790222E0	7.404538425E0
5.775035240E0	-8.761989594E0	-1.304314232E1	-1.479233074E1	2.158029360E1
5.793366385E0	-1.218336105E1	-2.380989456E1	-9.301241875E0	2.831710554E1
5.811723156E0	-8.310092926E0	-1.135980225E1	4.463939667E-1	1.408197497E1
5.830067115E0	3.511745214E0	2.216963768E-1	-1.732621908E0	3.922178274E0
5.848398260E0	6.282820225E0	6.297142029E0	1.715396643E0	9.059272231E0
5.866754979E0	9.887302399E0	9.022336006E0	9.500240326E0	1.641389235E1
5.885098937E0	1.010529709E1	8.402905464E-1	5.867379665E0	1.171534300E1
5.903430135E0	2.875611782E0	-2.538154221E1	2.838275909E0	2.570112134E1
5.921786854E0	-2.630273819E0	-2.116289330E1	1.414296341E1	2.558925179E1
5.940130812E0	7.222070694E-1	3.076105118E-1	2.611722946E0	2.727142099E0
5.958461958E0	5.903517723E0	3.488561153E0	5.710463047E0	8.923618584E0
5.976818677E0	1.016290379E1	4.124387264E0	4.127821922E0	1.171896316E1
5.995162635E0	1.085795403E1	3.516438961E0	4.595526695E0	1.230363256E1
6.013493833E0	6.118495941E0	5.100822449E-1	5.296619892E0	8.108659492E0
6.031850552E0	1.451410770E0	-1.255334854E0	4.724541664E0	5.099387488E0
6.050194510E0	-2.919112682E0	-1.422007561E0	2.655866623E0	4.194872093E0
6.068525656E0	-4.923559189E0	-5.450677872E-1	-1.300257206E0	5.121445380E0
6.086882375E0	-2.862503529E0	1.604356766E0	-4.815551937E-1	3.316591999E0
6.105226333E0	1.200274229E0	3.086922646E0	-7.743918896E-1	3.401386841E0
6.123557479E0	3.508634090E0	3.514209747E0	-1.780505180E0	5.275450884E0
6.141914198E0	3.755670071E0	2.986266136E0	-1.881280422E0	5.153839262E0
6.160258156E0	2.735575438E0	2.174338341E0	-1.045922160E0	3.647612008E0
6.178589302E0	1.330282569E0	1.097027779E0	-4.223108292E-2	1.724791328E0
6.196946073E0	-2.403473854E-1	-7.558450699E-1	-6.123639345E-1	1.002027057E0
6.215289979E0	-1.604459167E0	-2.397818565E0	-1.597368598E0	3.297788581E0
6.233621177E0	-1.990719438E0	-2.557684898E0	-2.903803825E0	4.351642515E0
6.251977896E0	-2.063212633E0	-2.435470581E0	-3.366409779E0	4.639081603E0
6.270321802E0	-3.898473501E0	-2.481952667E0	-1.151961207E0	4.762898204E0
6.288653000E0	-7.142263412E0	-3.608160973E0	-1.254807115E0	8.099709449E0
6.307009719E0	-9.840917587E0	-3.466962814E0	-8.122017384E-1	1.046533142E1
6.325353625E0	-1.034454155E1	-2.455134392E0	-2.901407957E0	1.102068024E1
6.343684771E0	-7.003089428E0	-3.002148628E0	-4.533496857E0	8.866157661E0
6.362041542E0	-4.344236374E0	-2.889610291E0	-2.479033470E0	5.776490652E0
6.380385448E0	-2.357990503E0	-3.778002739E0	4.277050495E-2	4.453678617E0
6.398716594E0	9.615892172E-2	-3.482378960E0	1.505893469E-1	3.486959551E0
6.417073312E0	1.496447325E0	-2.316024780E0	-1.314439178E-1	2.760543947E0
6.435417271E0	3.106162071E0	-4.683825493E0	2.259680748E0	6.057443449E0
6.453748417E0	3.891627789E0	-1.111116314E1	5.607451439E0	1.304017733E1
6.472105135E0	2.096903324E0	-1.625655365E1	1.978770256E0	1.651024142E1
6.490449094E0	1.721029997E0	-1.478339100E1	4.148985445E-1	1.488901389E1
6.508780240E0	4.181348324E0	-8.808617592E0	3.888217688E0	1.049731654E1
6.527136958E0	5.254281998E0	-4.103238106E0	3.401901722E0	7.484449051E0
6.545480865E0	4.678183556E0	-6.578798294E-1	2.712669373E0	5.447640074E0
6.563812062E0	4.077964783E0	1.591186047E0	3.980347157E0	5.916488257E0
6.582168781E0	4.151112556E0	3.604812145E0	5.868519783E0	8.041512949E0
6.600512687E0	5.020289421E0	4.531332016E0	6.420779228E0	9.325378363E0
6.618843833E0	6.528661728E0	5.851541996E0	7.302767277E0	1.141027509E1
6.637200552E0	8.963235855E0	7.889371872E0	6.581802368E0	1.363458499E1
6.655544510E0	1.223726273E1	9.369174957E0	3.908088684E0	1.589984892E1
6.673875656E0	1.493949032E1	9.692826271E0	1.951178193E0	1.791497554E1
6.692232323E0	1.369198418E1	8.915849686E0	2.342308044E0	1.650603566E1
6.710576281E0	1.006222057E1	6.151288033E0	2.313856125E0	1.201834254E1
6.728907427E0	7.435892105E0	3.714577913E0	5.863530636E-1	8.332730068E0
6.747264146E0	4.567336559E0	1.040783882E0	-9.276232719E-1	4.775382631E0
6.765608052E0	-3.589167595E-1	-4.204824924E0	-6.486487865E0	7.738468758E0
6.783939198E0	-9.889284134E0	-1.353403854E1	-1.857934952E1	2.502319661E1
6.802295917E0	-1.439476967E1	-2.054242706E1	-1.035842323E1	2.713848992E1
6.820639875E0	-8.676115990E0	-9.254100800E0	2.764973640E0	1.298300618E1
6.838971021E0	4.502964020E0	3.066663742E-1	4.712369442E-1	4.537928325E0
6.857327687E0	8.672525406E0	4.705554008E0	1.794919372E0	1.002879210E1
6.875671646E0	1.001764107E1	4.773284912E0	8.561155319E0	1.401537591E1
6.894002792E0	7.405749321E0	-1.122593689E1	-5.332234383E0	1.446718720E1
6.912359510E0	-2.251235962E0	-2.245191002E1	1.992047310E1	3.009952783E1
6.930703417E0	2.063795090E0	-4.175462723E0	3.839435577E0	6.036141539E0
6.949034562E0	4.886336327E0	4.518647194E0	6.250535488E0	9.130369601E0
6.967391281E0	6.605545044E0	5.497934341E0	6.683850288E0	1.088734871E1
6.985735187E0	8.591415405E0	3.421527863E0	5.305501461E0	1.066150165E1
7.004066333E0	5.487901211E0	-6.778202057E-1	4.410753250E0	7.073276763E0
7.022423052E0	5.199518204E-1	-2.468167305E0	4.965095520E0	5.569054970E0
7.040766958E0	-2.837438107E0	-2.489193916E0	3.802141428E0	5.357557354E0
7.059098104E0	-3.581336021E0	-2.412382126E0	3.483838141E-1	4.332081082E0
7.077454823E0	-1.499989033E0	-5.179300308E-1	-7.917609215E-1	1.773444099E0
7.095798729E0	2.976090193E0	3.301606655E0	-2.066347599E-1	4.449765979E0
7.114129875E0	5.616970062E0	5.166729927E0	2.533769608E-2	7.631912789E0
7.132486594E0	5.281253338E0	4.370361805E0	-3.041538000E-1	6.861793400E0
7.150830500E0	3.122947454E0	2.064830303E0	-1.166854620E0	3.921463335E0
7.169161646E0	5.430001020E-1	5.727510452E-1	-3.787015676E-1	8.753900548E-1
7.187518312E0	-1.915092707E0	-2.071485519E-1	-1.036021590E0	2.187197141E0
7.205862271E0	-3.602944374E0	-6.766061783E-1	-1.532962561E0	3.973534736E0
7.224206177E0	-3.629024029E0	1.581649780E-1	-1.615642190E0	3.975566783E0
7.242550083E0	-1.583656788E0	6.819143295E-1	-3.135531902E0	3.578342673E0
7.260893990E0	2.849938571E-1	-1.680252075E0	-3.293579817E0	3.708387324E0
7.279225135E0	-4.585503340E-1	-5.568364143E0	-3.150244951E0	6.414124328E0
7.297581854E0	-4.415160656E0	-5.780123711E0	-1.424516439E0	7.411661137E0
7.315925760E0	-9.222277641E0	-4.338658333E0	-2.049206257E0	1.039584568E1
7.334256906E0	-1.222365856E1	-2.595514297E0	-2.021395683E0	1.265861618E1
7.352613625E0	-1.147301960E1	-2.126138687E0	-3.965795517E0	1.232388650E1
7.370957531E0	-7.294387817E0	-2.896207809E0	-5.012395382E0	9.312369235E0
7.389288677E0	-3.904112577E0	-3.347174644E0	-9.945474863E-1	5.237823768E0
7.407645344E0	-6.929981709E-1	-4.009646416E0	1.504566669E0	4.338344351E0
7.425989250E0	2.527438402E-1	-3.527088165E0	2.569829226E0	4.371298734E0
7.444320396E0	8.461275101E-1	-3.768525124E0	4.684164047E0	6.071170084E0
7.462677115E0	2.668601513E0	-9.074430466E0	6.395823479E0	1.141811194E1
7.481021021E0	3.143776417E0	-1.444264412E1	3.997624159E0	1.531190054E1
7.499352115E0	2.650284767E0	-1.553501701E1	-8.498196602E-1	1.578236219E1
7.517708833E0	4.720928192E0	-1.049827099E1	1.239829063E0	1.157747956E1
7.536052740E0	5.955369949E0	-5.063603401E0	3.506059408E0	8.567319488E0
7.554383885E0	5.936580658E0	-1.174865723E0	3.515978336E0	6.998957282E0
7.572740552E0	5.142351627E0	1.820423126E0	4.613516808E0	7.144386464E0
7.591084510E0	4.512846470E0	3.985537529E0	5.296664238E0	8.019036395E0
7.609415604E0	4.772690773E0	4.925084114E0	5.423301697E0	8.743410778E0
7.627772323E0	5.885930538E0	5.555785179E0	6.270470142E0	1.023863873E1
7.646116229E0	7.261258602E0	7.578107357E0	5.592365265E0	1.189235624E1
7.664447323E0	8.890714645E0	9.186447144E0	4.884783268E0	1.368563939E1
7.682804042E0	1.061620331E1	9.248142242E0	3.988849878E0	1.463361989E1
7.701147948E0	1.139646530E1	8.633790016E0	3.028120279E0	1.461476185E1
7.719479042E0	1.026744652E1	7.224771023E0	2.882321358E0	1.288120921E1
7.737835760E0	7.989354134E0	5.282392979E0	2.421983242E0	9.879243791E0
7.756179667E0	5.505005360E0	2.467263699E0	-8.308720589E-2	6.033189675E0
7.774510760E0	1.191633701E0	-2.868756294E0	-4.977320671E0	5.867152173E0
7.792867479E0	-6.856549740E0	-1.274356365E1	-1.556808853E1	2.125502457E1
7.811211385E0	-1.343454933E1	-2.035940170E1	-1.315983105E1	2.771594318E1
7.829542479E0	-1.275261497E1	-1.003730774E1	-2.446697712E0	1.641228397E1
7.847899198E0	-6.632947922E-2	1.318126202E0	-2.466691971E0	2.797574943E0
7.866243052E0	7.855804443E0	3.127315521E0	6.897055626E0	1.091160585E1
7.884574198E0	1.026672363E1	-1.578250885E0	1.296132374E1	1.661000912E1
7.902930865E0	1.055360508E1	-1.683841705E1	-5.415333748E0	2.059700727E1
7.921274771E0	7.621006966E-1	-1.437899590E1	1.760874939E1	2.274652447E1
7.939605917E0	1.849932194E0	1.425874710E0	5.199214935E0	5.699754710E0
7.957962583E0	4.790980816E0	4.729350090E0	5.132205486E0	8.465210134E0
7.976306490E0	8.082395554E0	3.704644203E0	5.275308132E0	1.033820016E1
7.994637583E0	9.892518997E0	1.978815556E0	3.951424837E0	1.083473125E1
8.012994302E0	6.144632816E0	-9.570951462E-1	4.175543308E0	7.490507692E0
8.031338156E0	1.625152111E0	-2.777687073E0	6.094375610E0	6.891885006E0
8.049669302E0	-2.642783403E0	-2.385339737E0	4.235752583E0	5.533150072E0
8.068025969E0	-5.365695000E0	-6.292247772E-1	-6.161482930E-1	5.437485206E0
8.086369875E0	-4.584870338E0	2.173603535E0	9.777510166E-2	5.074953036E0
8.104700969E0	-6.895325184E-1	4.177804947E0	2.565487623E-1	4.242089878E0
8.123057687E0	2.082426786E0	4.988771439E0	-1.084319472E0	5.513627708E0
8.141401542E0	2.804985762E0	4.089871407E0	-2.380120754E0	5.500906112E0
8.159732687E0	2.370035172E0	2.521640778E0	-2.421412230E0	4.223621208E0
8.178089354E0	1.454715252E0	3.390874863E-1	-1.789588809E0	2.331052314E0
8.196433260E0	5.428586602E-1	-1.432074547E0	-1.321116924E0	2.022593128E0
8.214777115E0	-1.422916651E-1	-1.334876060E0	-6.423383951E-1	1.488200131E0
8.233121021E0	-7.703561187E-1	-5.583639145E-1	-1.221552968E0	1.548357344E0
8.251464927E0	-2.370226145E0	-1.788984299E0	-3.060437918E0	4.264354236E0
8.269796021E0	-5.236317635E0	-3.370499611E0	-2.910992384E0	6.874093879E0
8.288152687E0	-8.237837791E0	-3.560922623E0	-1.174306512E0	9.051029620E0
8.306496594E0	-1.063223457E1	-3.642296791E0	-1.273566842E0	1.131073430E1
8.324827687E0	-1.090755939E1	-2.522835732E0	-1.840746403E0	1.134583181E1
8.343184354E0	-8.761816025E0	-2.800736427E0	-4.118279934E0	1.007838153E1
8.361528260E0	-6.653432846E0	-3.426964760E0	-2.327992678E0	7.837844475E0
8.379859354E0	-4.895985603E0	-5.210849762E0	1.363232493E0	7.278875813E0
8.398216021E0	-1.811466455E0	-5.698182106E0	8.013873100E-1	6.032653782E0
8.416559927E0	5.242295265E-1	-4.100509644E0	2.525293350E0	4.844182329E0
8.434891021E0	2.815525055E0	-5.168093681E0	-6.781935692E-2	5.885658255E0
8.453247687E0	4.744029999E0	-1.148806667E1	4.965948105E0	1.338439902E1
8.471591594E0	4.748822212E0	-1.592219162E1	3.668484926E0	1.701544240E1
8.489922687E0	4.064353466E0	-1.315487766E1	-2.112037092E-1	1.377005383E1
8.508279354E0	4.855775833E0	-7.781738281E0	1.185690999E0	9.248776825E0
8.526623260E0	5.327946186E0	-4.030583382E0	2.706463099E0	7.208158951E0
8.544954354E0	5.610092163E0	-1.334921837E0	3.716584921E0	6.860623431E0
8.563311021E0	5.641853809E0	1.442319870E0	3.553291798E0	6.821780091E0
8.581654875E0	5.464755535E0	3.584124565E0	5.290328026E0	8.408155123E0
8.599985969E0	5.436225414E0	5.367121696E0	6.366740227E0	9.944542381E0
8.618342635E0	5.633442879E0	7.318882465E0	6.174517155E0	1.110974263E1
8.636686542E0	5.877053261E0	9.189023018E0	5.507148743E0	1.221910743E1
8.655017635E0	7.215456963E0	1.002067566E1	4.721736908E0	1.322011949E1
8.673374302E0	9.165559769E0	1.024234772E1	3.972678900E0	1.430717828E1
8.691718156E0	1.072486496E1	9.104384422E0	3.908411026E0	1.460096644E1
8.710049250E0	9.994948387E0	7.427341461E0	3.416593313E0	1.291268773E1
8.728405917E0	8.118177414E0	5.777311325E0	1.924465060E0	1.014818685E1
8.746749771E0	5.961395264E0	3.466444492E0	-3.599145412E-1	6.905360916E0
8.765080917E0	1.146214962E0	-1.578417778E0	-5.362731934E0	5.706496755E0
8.783437531E0	-7.443186760E0	-1.237341022E1	-1.471083736E1	2.061337056E1
8.801781437E0	-1.420360470E1	-2.230710030E1	-1.402504921E1	2.993411290E1
8.820112531E0	-1.184025574E1	-1.160375595E1	-4.669397354E0	1.722330049E1
8.838469146E0	1.535742044E0	-9.411935806E-1	3.160459995E-1	1.828724708E0
8.856813052E0	8.230923653E0	3.918004990E0	-3.164649010E-1	9.121349533E0
8.875144146E0	9.020580292E0	5.519226074E0	2.844039679E0	1.095085782E1
8.893500812E0	7.971477509E0	-9.458723068E-1	1.028651237E1	1.304804449E1
8.911844667E0	6.650290489E0	-1.678424072E1	-1.635270596E0	1.812763664E1
8.930175760E0	-2.467374802E-1	-1.568696880E1	1.539329433E1	2.197943084E1
8.948532427E0	5.166759491E-1	1.332110405E0	6.907245636E0	7.053475345E0
8.966876281E0	1.920649767E0	4.980478287E0	7.338759422E0	9.074769934E0
8.985207375E0	4.046336651E0	3.514231205E0	6.346076012E0	8.306343480E0
9.003564042E0	5.893090248E0	1.402544975E0	3.637723446E0	7.066022711E0
9.021907896E0	4.329333782E0	-4.580717087E-1	1.738963008E0	4.687958301E0
9.040238990E0	1.555366516E0	-1.006278992E0	2.688292742E0	3.264763433E0
9.058595604E0	-7.828562260E-1	-3.538284302E-1	1.366091609E0	1.613773439E0
9.076939510E0	-1.947384119E0	7.951450348E-1	-4.862885475E-1	2.158943511E0
9.095270604E0	-3.991782665E-1	1.774956226E0	-8.955331445E-1	2.027755534E0
9.113627219E0	1.661613464E0	3.203394413E0	-4.387095571E-1	3.635266310E0
9.131971125E0	2.204781055E0	4.080286980E0	-1.292527556E0	4.814605781E0
9.150314979E0	1.450711012E0	3.145144463E0	-2.018713713E0	4.008952629E0
9.168658833E0	3.875981569E-1	1.227869034E0	-1.330564141E0	1.851565724E0
9.187002687E0	-1.902502775E-1	-3.025064468E-1	-1.937870026E0	1.970544482E0
9.205333781E0	-5.762803555E-2	-1.226442337E0	-2.722043991E0	2.986135510E0
9.223690448E0	8.122965097E-1	-5.466308594E-1	-1.317738414E0	1.641665448E0
9.242034302E0	2.320359051E-1	-8.309345245E-1	-1.601800442E0	1.819356342E0
9.260365396E0	-3.388364792E0	-2.294823647E0	-2.366780281E0	4.727460252E0
9.278722010E0	-8.439620018E0	-3.522117615E0	-1.286932349E0	9.235187784E0
9.297065917E0	-1.263703251E1	-4.263161659E0	3.458886147E-1	1.334124345E1
9.315396958E0	-1.297953129E1	-3.109696388E0	-1.579011321E0	1.343993009E1
9.333753625E0	-8.933838844E0	-2.179294586E0	-3.118057489E0	9.710050664E0
9.352097479E0	-6.320616722E0	-2.755682945E0	-4.879696846E0	8.447214070E0
9.370428573E0	-5.029198647E0	-3.417447090E0	-1.724805355E0	6.320343120E0
9.388785187E0	-2.789711237E0	-4.015073776E0	1.257562041E0	5.048244101E0
9.407129094E0	1.552431285E-2	-3.775383949E0	1.172614455E0	3.953326401E0
9.425460135E0	1.890601873E0	-2.773285866E0	4.885021448E-1	3.391773029E0
9.443816802E0	4.160174370E0	-7.129076004E0	9.568220973E-1	8.309409364E0
9.462160656E0	4.753024101E0	-1.401505184E1	3.857954502E0	1.529368266E1
9.480491750E0	4.147589207E0	-1.739561844E1	-1.101186126E-1	1.788357244E1
9.498848365E0	4.888755798E0	-1.111306953E1	-7.075271606E-1	1.216144903E1
9.517192219E0	5.980125427E0	-5.430152893E0	3.309026718E0	8.729153360E0
9.535523312E0	5.384546757E0	-2.170531273E0	4.664853096E0	7.447509932E0
9.553879927E0	4.467950821E0	-4.871463776E-1	4.087768078E0	6.075339002E0
9.572223781E0	3.521780729E0	1.384944916E0	2.143321753E0	4.349119458E0
9.590554875E0	3.279824495E0	2.576657295E0	3.103010893E0	5.198565969E0
9.608911490E0	3.759450674E0	3.817004681E0	5.202919006E0	7.468156418E0
9.627255344E0	4.644433975E0	5.482195854E0	6.856953621E0	9.931920826E0
9.645586437E0	5.942887306E0	7.458659649E0	6.672326565E0	1.163913464E1
9.663943052E0	8.271435738E0	9.177380562E0	6.307913303E0	1.387194051E1
9.682286906E0	1.078837776E1	1.033644867E1	3.688883066E0	1.538957843E1
9.700618000E0	1.204920578E1	1.047089577E1	2.430442810E0	1.614713815E1
9.718974615E0	1.069909668E1	9.150567055E0	2.288887978E0	1.426332904E1
9.737318469E0	8.218172073E0	7.267559528E0	7.158222198E-1	1.099400633E1
9.755649562E0	5.734961987E0	4.506521225E0	-1.287566185E0	7.406507221E0
9.774006177E0	2.196471691E0	-2.666967392E0	-5.956713676E0	6.886192038E0
9.792350031E0	-5.856695175E0	-1.617062759E1	-1.503228951E1	2.284206214E1
9.810681125E0	-1.331563663E1	-2.695380783E1	-1.849006271E1	3.529442385E1
9.829037740E0	-1.097107410E1	-6.286209106E0	-2.205226898E0	1.283526071E1
9.847381594E0	3.059051991E0	3.211137772E0	1.750602245E0	4.767998856E0
9.865712635E0	9.008711815E0	-2.660910606E0	1.050372887E1	1.409133258E1
9.884069302E0	7.495714664E0	-9.772711754E0	6.105053425E0	1.374639264E1
9.902413156E0	3.330965519E0	-1.481054020E1	7.608489990E0	1.698047562E1
9.920744198E0	2.047533035E0	-1.231841087E0	1.075189877E1	1.101422494E1
9.939100812E0	3.602159500E0	5.145855904E0	7.019007683E0	9.419227935E0
9.957444667E0	4.754554749E0	4.943783760E0	6.193952560E0	9.241852468E0
9.975775760E0	8.250491142E0	1.787263870E0	2.655558109E0	8.849683898E0
9.994132375E0	8.369237900E0	-1.652878761E0	1.239821672E0	8.620516748E0
1.001247623E1	4.227879524E0	-1.932467461E0	1.694749236E0	4.947885481E0
1.003080727E1	9.510865211E-1	-5.366001129E-1	2.825747967E0	3.029415261E0
1.004916388E1	-1.479447842E0	1.034325600E0	2.386110544E0	2.992009173E0
1.006750774E1	-3.385950565E0	1.499032974E0	8.442516327E-1	3.797962863E0
1.008585159E1	-3.710048914E0	2.068583012E0	6.897302866E-1	4.303397087E0
1.010419545E1	-2.351283550E0	3.581293106E0	-4.014959335E-1	4.302951735E0
1.012253925E1	-2.484161854E-1	3.738201141E0	-1.955919981E0	4.226284579E0
1.014087034E1	1.233608484E0	2.704659939E0	-2.055675268E0	3.614246268E0
1.015922696E1	1.783181310E0	2.347772598E0	-1.208916068E0	3.186416454E0
1.017757081E1	1.702456474E0	2.024149895E0	-5.698620081E-1	2.705602253E0
1.019590185E1	8.919345140E-1	5.484876633E-1	-1.360898256E0	1.717099286E0
1.021425847E1	-3.256207705E-1	-1.915003777E0	-1.965576172E0	2.763468480E0
1.023260232E1	-1.465465665E0	-4.279110909E0	-2.577384949E0	5.205890217E0
1.025093336E1	-3.135954142E0	-4.964465141E0	-2.177525997E0	6.262726402E0
1.026928998E1	-5.832495213E0	-4.015511513E0	-3.359237194E0	7.837525607E0
1.028763383E1	-8.621736526E0	-3.041809082E0	-1.321557045E0	9.237610960E0
1.030596488E1	-1.079877472E1	-2.840771675E0	-1.942764759E0	1.133392492E1
1.032432149E1	-1.155627346E1	-2.072771072E0	-2.381890297E0	1.197986801E1
1.034266534E1	-9.112201691E0	-2.181588173E0	-3.718810081E0	1.008072889E1
1.036099638E1	-6.519144058E0	-2.229620934E0	-2.461979151E0	7.316542223E0
1.037935300E1	-4.675087452E0	-3.757184029E0	1.455469131E0	6.171812125E0
1.039769685E1	-2.591998577E0	-5.144150734E0	3.091664314E-1	5.768563710E0
1.041602790E1	-7.963328362E-1	-4.747296333E0	3.331708908E-1	4.825139511E0
1.043438451E1	2.271307468E0	-6.637713432E0	1.943630695E0	7.279819881E0
1.045272836E1	4.722987652E0	-1.082097149E1	6.133983135E0	1.330510374E1
1.047105941E1	4.919082642E0	-1.415828705E1	3.601702452E0	1.541514602E1
1.048941602E1	4.761467457E0	-1.346229458E1	-4.917572439E-2	1.427961365E1
1.050775982E1	5.144487381E0	-8.298313141E0	1.282488465E0	9.847463027E0
1.052609086E1	4.949184418E0	-3.945883751E0	3.217354536E0	7.100408100E0
1.054444748E1	4.370015144E0	-1.030593872E0	3.017050266E0	5.409412944E0
1.056279133E1	3.867487192E0	1.090862274E0	3.184114456E0	5.126989619E0
1.058112238E1	3.988731146E0	2.851438046E0	4.483717918E0	6.644125334E0
1.059947899E1	4.750368595E0	4.297724724E0	5.569680214E0	8.488685250E0
1.061782279E1	5.853321552E0	6.161282063E0	7.043597698E0	1.103789103E1
1.063615383E1	6.976474285E0	8.375249863E0	6.521018028E0	1.270195575E1
1.065451045E1	8.712581635E0	9.611934662E0	4.016120434E0	1.358041200E1
1.067285425E1	1.029227257E1	9.759725571E0	3.552043438E0	1.462190584E1
1.069119810E1	1.046150017E1	8.980158806E0	3.760421515E0	1.429080151E1
1.070954191E1	9.134278297E0	7.622015476E0	3.301162004E0	1.234616663E1
1.072788576E1	7.358357430E0	6.367432594E0	2.076288223E0	9.949904255E0
1.074621680E1	4.814712524E0	4.304382801E0	-6.662797928E-1	6.492541625E0
1.076457336E1	1.715674400E-1	1.224890232E0	-5.379098892E0	5.519465224E0
1.078291722E1	-6.955479145E0	-7.553566933E0	-1.494095230E1	1.812917867E1
1.080124826E1	-1.075354004E1	-1.904779625E1	-1.304384708E1	2.546760908E1
1.081960488E1	-9.536588669E0	-1.564468288E1	-2.650664091E0	1.851293186E1
1.083794868E1	-1.720523834E-1	-2.448880196E0	-9.367773533E-1	2.627578361E0
1.085627972E1	6.930007935E0	2.677191734E0	-2.563311100E0	7.858939455E0
1.087463628E1	9.063226700E0	3.510255814E0	6.874041557E-1	9.743536245E0
1.089298014E1	6.941985130E0	-4.497480392E0	8.503188133E0	1.186265973E1
1.091131118E1	3.078823090E-1	-1.765035629E1	1.447354198E0	1.771227549E1
1.092966774E1	-3.043126583E0	-7.063063622E0	1.556765938E1	1.736374112E1
1.094801159E1	3.394351959E0	2.135923862E0	5.389619827E0	6.718020382E0
1.096634264E1	3.828442574E0	5.165537834E0	7.565678596E0	9.928708188E0
1.098469920E1	5.812611580E0	3.033968925E0	6.425379753E0	9.180246499E0
1.100304300E1	7.792563438E0	-7.666931152E-1	4.500529766E0	9.031424663E0
1.102137404E1	4.442376137E0	-2.163388252E0	2.555762053E0	5.562991474E0
1.103973066E1	6.222791672E-1	-1.509620667E0	2.895382404E0	3.324067566E0
1.105807446E1	-1.676991701E0	-7.710762024E-1	2.210590839E0	2.879856166E0
1.107640550E1	-2.362985611E0	4.529571533E-1	-4.561235607E-1	2.448860936E0
1.109476206E1	-1.134098530E0	1.861081600E0	-4.645642936E-1	2.228368053E0
1.111310592E1	4.757869244E-1	3.378193855E0	4.822880030E-1	3.445456231E0
1.113143691E1	7.068762779E-1	4.607570648E0	-2.495670319E-1	4.668154352E0
1.114979352E1	1.738628149E-1	4.063494205E0	-2.551353216E0	4.801209917E0
1.116813732E1	-7.227444649E-2	2.192098141E0	-3.525767803E0	4.152295324E0
1.118646837E1	-2.527209520E-1	1.026592255E0	-9.445810318E-1	1.417742171E0
1.120482498E1	-3.955967426E-1	2.492666245E-1	-1.144508600E0	1.236337563E0
1.122316878E1	3.544715047E-1	1.217136383E-1	-1.037892580E0	1.103487773E0
1.124149977E1	7.064021826E-1	6.271018982E-1	2.623472214E-1	9.803503959E-1
1.125985638E1	-1.223419905E0	-2.205774307E0	-1.501750350E0	2.935549467E0
1.127820019E1	-5.150419712E0	-6.969183922E0	-3.453566313E0	9.328636986E0
1.129653123E1	-9.069872856E0	-5.964031219E0	-1.185052037E0	1.091955175E1
1.131488779E1	-1.028549767E1	-3.842219353E0	-1.252164960E0	1.105088362E1
1.133323159E1	-8.731350899E0	-3.277191162E0	-2.590397835E0	9.679185471E0
1.135156264E1	-6.951884747E0	-3.279162407E0	-2.890689850E0	8.212045752E0
1.136991925E1	-6.238440037E0	-3.513864517E0	-3.735616207E0	8.075902822E0
1.138826305E1	-5.899534225E0	-4.483134270E0	-1.240894318E0	7.512843381E0
1.140660685E1	-5.265463829E0	-5.324795723E0	-1.742887497E-2	7.488582148E0
1.142495066E1	-3.576457500E0	-2.892167091E0	-7.913558483E-1	4.667110757E0
1.144329446E1	-2.457150519E-1	-2.181978226E0	-2.046224117E0	3.001406004E0
1.146162545E1	4.199411392E0	-5.187109947E0	4.917433739E0	8.289892654E0
1.147998206E1	5.625665188E0	-1.073546124E1	7.018717766E0	1.400573582E1
1.149832586E1	3.988620281E0	-1.411280632E1	1.525443316E0	1.474474046E1
1.151665685E1	2.606307030E0	-1.098738098E1	-5.901669264E-1	1.130768209E1
1.153501347E1	2.653539658E0	-6.052974701E0	2.617996216E0	7.108704497E0
1.155335727E1	2.485608816E0	-2.809609413E0	4.348605633E0	5.743041632E0
1.157168826E1	2.362178802E0	-1.714763641E-1	3.217062235E0	3.994844460E0
1.159004488E1	2.611134768E0	2.197766304E0	4.378214836E0	5.551303149E0
1.160838868E1	3.558706045E0	4.170222759E0	6.342913151E0	8.383775630E0
1.162671967E1	4.719712257E0	5.584208488E0	5.888735294E0	9.388092011E0
1.164507628E1	5.672676563E0	7.328350544E0	6.130216599E0	1.111141470E1
1.166342008E1	7.020460606E0	9.016152382E0	6.006122589E0	1.290935240E1
1.168175107E1	9.112333298E0	9.958618164E0	4.208089352E0	1.413919057E1
1.170010764E1	1.114974022E1	1.031229591E1	2.093398571E0	1.533109492E1
1.171845144E1	1.170109558E1	9.869732857E0	1.511700034E0	1.538221380E1
1.173678248E1	9.066228867E0	8.885310173E0	2.588568211E0	1.295553658E1
1.175513904E1	5.891639233E0	6.427274227E0	1.264939904E0	8.810297373E0
1.177348284E1	1.884543657E0	1.628181458E0	-2.485427856E0	3.518498442E0
1.179181389E1	-4.369091511E0	-7.511287689E0	-1.047614479E1	1.361095195E1
1.181017045E1	-8.989994049E0	-2.089819336E1	-1.667524147E1	2.820670411E1
1.182851425E1	-1.084780312E1	-1.796217728E1	-3.416472912E0	2.125998429E1
1.184684524E1	-3.355293751E0	-1.954239845E0	6.575369835E-1	3.938198117E0
1.186520185E1	4.914122581E0	3.574450016E0	-1.254144669E0	6.204689558E0
1.188354560E1	9.726387024E0	2.126269341E0	-4.022762775E-1	9.964208551E0
1.190187665E1	6.916302204E0	-8.122411728E0	7.122447014E0	1.282723898E1
1.192023321E1	6.662118435E-1	-2.375788879E1	2.770146132E-1	2.376884211E1
1.193857701E1	-1.933504581E0	-4.757165909E0	1.512303352E1	1.597107418E1
1.195690800E1	5.091187000E0	5.656637192E0	3.057957172E0	8.201757827E0
1.197526462E1	7.525115013E0	9.052350044E0	7.409074306E0	1.390923360E1
1.199360842E1	8.791010857E0	6.878696442E0	6.925874710E0	1.313644081E1
1.201193941E1	7.881735802E0	1.760234833E-1	5.999439240E0	9.906867048E0
1.203029597E1	2.569338799E0	-5.168929100E0	5.343600750E0	7.865964587E0
1.204863977E1	-2.892620325E0	-5.135658264E0	3.661586046E0	6.938980511E0
1.206697081E1	-6.449530602E0	-2.438226700E0	1.007518053E0	6.968248492E0
1.208532738E1	-5.850467682E0	9.195804596E-1	-3.589710891E-1	5.933166150E0
1.210367118E1	-1.863053560E0	3.151586056E0	-1.350578547E0	3.902246231E0
1.212200217E1	2.514241457E0	4.106568813E0	-2.361871004E-1	4.820902599E0
1.214035873E1	4.309326649E0	4.692492485E0	-2.692512274E-1	6.376698057E0
1.215870253E1	3.819304943E0	3.742600441E0	-2.042518377E0	5.724161915E0
1.217703352E1	2.301282883E0	1.761629105E0	-2.211573601E0	3.645586071E0
1.219539014E1	6.135314107E-1	-6.672763824E-2	-1.910632849E0	2.007832476E0
1.221373388E1	-1.484063387E0	-1.340809822E0	-1.337682009E0	2.406160483E0
1.223206493E1	-2.954040766E0	-1.421235085E0	-1.215898871E0	3.496380425E0
1.225042149E1	-2.633010149E0	-3.363304138E-1	-1.873981833E0	3.249256608E0
1.226876529E1	-1.800932407E0	-6.238603592E-1	-2.631489992E0	3.249199726E0
1.228709628E1	-2.620985508E0	-2.672304153E0	-3.289016247E0	4.982810692E0
1.230545284E1	-5.952983379E0	-3.871163368E0	-2.306193590E0	7.466086379E0
1.232379665E1	-9.822798729E0	-3.323219299E0	-3.305344582E-1	1.037498985E1
1.234212764E1	-1.195450401E1	-2.181736946E0	-1.933085203E0	1.230475358E1
1.236048425E1	-1.037337112E1	-2.079146385E0	-2.782803774E0	1.093954638E1
1.237882800E1	-7.162512779E0	-3.049679756E0	-3.450275421E0	8.515077006E0
1.239715904E1	-5.212331295E0	-3.406729698E0	-5.110216141E-2	6.227103355E0
1.241551560E1	-3.046927691E0	-5.133673668E0	-2.304446697E-1	5.974234547E0
1.243385935E1	-6.295795441E-1	-4.817867279E0	1.125346899E0	4.987446357E0
1.245219040E1	9.194600582E-1	-2.534073830E0	2.502885342E0	3.678501326E0
1.247054696E1	3.293822050E0	-3.863739967E0	1.785842299E0	5.382098378E0
1.248889076E1	3.984591961E0	-1.006984997E1	2.397943974E0	1.109184325E1
1.250722175E1	3.210848331E0	-1.526459789E1	-1.476549059E-1	1.559933645E1
1.252557831E1	2.920669556E0	-1.256983566E1	-1.554678917E0	1.299800392E1
1.254392212E1	3.881303549E0	-5.755352020E0	2.342565060E0	7.326404655E0
1.256225310E1	3.867897511E0	-1.618836403E0	3.798476219E0	5.657710141E0
1.258060967E1	3.319543362E0	7.757530212E-1	3.105263233E0	4.611271042E0
1.259895347E1	2.615531206E0	2.654826164E0	3.616249084E0	5.192914682E0
1.261728446E1	2.696894407E0	3.792949677E0	4.447961807E0	6.437706962E0
1.263564102E1	3.516521931E0	4.358903885E0	4.205658436E0	7.003822702E0
1.265398482E1	4.581090450E0	4.928626537E0	5.011264801E0	8.389906088E0
1.267231581E1	5.788234711E0	6.210075378E0	5.845215797E0	1.030704832E1
1.269067238E1	6.932323456E0	7.859385014E0	5.197111130E0	1.169773505E1
1.270901618E1	8.521758080E0	8.815263748E0	3.762949467E0	1.282532746E1
1.272734717E1	1.002309608E1	8.857022285E0	2.790087223E0	1.366359710E1
1.274570373E1	1.013869667E1	7.938629627E0	2.854315281E0	1.318947028E1
1.276404753E1	7.877250671E0	6.372255802E0	2.119068623E0	1.035119191E1
1.278237852E1	5.686295509E0	4.222908020E0	6.693291664E-2	7.083176461E0
1.280073508E1	2.208666325E0	6.571006775E-1	-4.937964439E0	5.449172510E0
1.281907889E1	-4.677676201E0	-7.073006630E0	-1.243764687E1	1.505334305E1
1.283740988E1	-1.305420113E1	-1.906909943E1	-1.727677155E1	2.885358825E1
1.285576644E1	-1.388082981E1	-1.532473564E1	-8.959133148E0	2.253421899E1
1.287411024E1	-9.281277657E-1	-2.998058319E0	-8.505198956E-1	3.251639421E0
1.289244123E1	1.041302586E1	6.504187584E-1	7.778255939E-1	1.046227340E1
1.291079779E1	1.198813438E1	-1.232029915E0	2.345646381E0	1.227743135E1
1.292914159E1	8.763505936E0	-7.802951813E0	3.271061420E0	1.218133556E1
1.294747258E1	9.351305962E-1	-1.238361454E1	7.581149101E0	1.454998969E1
1.296582915E1	-2.088575363E-1	-1.486431122E0	1.105161476E1	1.115308423E1
1.298417295E1	2.190432549E0	2.991398335E0	6.074372768E0	7.116492343E0
1.300250394E1	7.613086700E-1	4.240105629E0	7.895439625E0	8.994223341E0
1.302086050E1	2.427555561E0	2.378227711E0	3.888063431E0	5.163916177E0
1.303920430E1	3.751271486E0	-7.204322815E-1	2.901337147E0	4.796750741E0
1.305753529E1	1.517169952E0	-5.989685059E-1	1.795441985E0	2.425732850E0
1.307589185E1	-3.473303318E-1	3.736591339E-1	8.139506578E-1	9.606118785E-1
1.309423560E1	-5.422852039E-1	6.860389709E-1	1.086502433E0	1.394707944E0
1.311257941E1	-4.246041775E-1	1.095936775E0	1.020394802E0	1.556461267E0
1.313092321E1	-9.224414825E-3	1.549847603E0	3.339782953E-1	1.585450782E0
1.314926696E1	2.509746552E-1	2.582255840E0	1.312422752E-1	2.597740949E0
1.316759800E1	1.564567089E-1	3.864540100E0	-5.486779213E-1	3.906430128E0
1.318595451E1	-1.171488762E-1	3.635097504E0	-2.082499027E0	4.190997485E0
1.320429831E1	-3.231256008E-1	2.787995338E0	-1.877966642E0	3.376993762E0
1.322262930E1	-5.528644323E-1	2.199726105E0	-2.485774755E-1	2.281719697E0
1.324098586E1	-1.167238712E0	1.556241989E0	-2.076158524E-1	1.956384339E0
1.325932967E1	-1.766505480E0	-9.962749481E-2	-1.367492914E0	2.236180699E0
1.327766066E1	-1.599485517E0	-2.463520050E0	-2.366327286E0	3.771841696E0
1.329601722E1	-7.628990710E-2	-3.591250420E0	-2.581189871E0	4.423283947E0
1.331436102E1	-1.550418437E-1	-4.143004417E0	-1.878289223E0	4.551537540E0
1.333269201E1	-4.617019176E0	-4.274121284E0	-2.363915920E0	6.721091973E0
1.335104857E1	-9.582674026E0	-4.195341110E0	-2.509119272E0	1.075751868E1
1.336939232E1	-1.249505043E1	-3.139019012E0	-1.812865973E0	1.301023477E1
1.338772337E1	-1.186974525E1	-2.168996811E0	-3.317358732E0	1.251400290E1
1.340607988E1	-7.366272449E0	-3.079950333E0	-4.424839497E0	9.128377097E0
1.342442368E1	-5.137187958E0	-3.464715958E0	-1.338588238E0	6.339304004E0
1.344275467E1	-4.464514732E0	-5.035889626E0	8.515231609E-1	6.783595493E0
1.346111123E1	-3.446729660E0	-4.668231964E0	1.317547917E0	5.950484647E0
1.347945503E1	-1.816925049E0	-3.041588783E0	8.372995853E-1	3.640542481E0
1.349778602E1	1.991008401E0	-4.719410896E0	1.806295633E0	5.431358723E0
1.351614258E1	4.618318081E0	-1.022912121E1	5.694033146E0	1.258514188E1
1.353448633E1	4.498043537E0	-1.397606754E1	2.180836201E0	1.484314341E1
1.355281738E1	3.349614143E0	-1.143688679E1	-9.675532579E-1	1.195652347E1
1.357117388E1	3.736781120E0	-6.274192810E0	1.616129398E0	7.479365133E0
1.358951769E1	3.781793118E0	-2.232158661E0	4.055652142E0	5.977692344E0
1.360784868E1	3.238102198E0	9.560575485E-1	3.954607725E0	5.199834049E0
1.362620524E1	2.556884289E0	3.300685406E0	3.046550274E0	5.168524933E0
1.364454904E1	2.879890203E0	4.270435333E0	3.703443766E0	6.343964159E0
1.366288003E1	3.709777355E0	5.046225548E0	4.563344479E0	7.749255005E0
1.368123659E1	4.606396675E0	6.010424137E0	6.190582275E0	9.780971196E0
1.369958034E1	5.415122032E0	8.298179626E0	6.221147537E0	1.169982942E1
1.371791133E1	6.946835041E0	9.384057999E0	4.662141800E0	1.257197788E1
1.373626790E1	9.054377556E0	9.240174294E0	2.951753616E0	1.326934148E1
1.375461170E1	1.036155510E1	8.131688118E0	2.207401514E0	1.335510379E1
1.377294269E1	9.246639252E0	6.549816608E0	2.432800293E0	1.158960536E1
1.379129925E1	6.863402367E0	5.043190002E0	1.528138757E0	8.653049492E0
1.380964300E1	4.046356201E0	3.344492912E0	-1.434024811E0	5.441971932E0
1.382797399E1	-2.119631767E-1	6.713962555E-2	-6.053009987E0	6.057092208E0
1.384633055E1	-7.209363937E0	-8.247629166E0	-1.422459984E1	1.795376161E1
1.386467435E1	-1.242004204E1	-1.840984344E1	-1.493317890E1	2.676153232E1
1.388300534E1	-1.138918304E1	-1.125907612E1	-3.223305225E0	1.633615567E1
1.390136191E1	3.569860458E-1	-3.505754471E-1	-9.982347488E-1	1.116608613E0
1.391970566E1	8.134029388E0	2.391139507E0	8.531212807E-2	8.478635527E0
1.393803665E1	8.375133514E0	-3.399410248E0	8.137493134E0	1.216213986E1
1.395639321E1	5.677487373E0	-1.487512207E1	8.589740992E-1	1.594493512E1
1.397473701E1	-2.020836830E0	-9.007680893E0	1.436174870E1	1.707284165E1
1.399306800E1	1.582206726E0	2.383068085E0	2.791055679E0	3.996546437E0
1.401142451E1	4.314340115E0	5.527828217E0	6.938994408E0	9.865092945E0
1.402976831E1	5.614588261E0	5.107705116E0	6.282239914E0	9.852857008E0
1.404809930E1	7.455449104E0	1.701445580E0	4.097115993E0	8.675540206E0
1.406645586E1	4.928486824E0	-1.982011795E0	4.182491779E0	6.761034730E0
1.408479962E1	6.769702435E-1	-2.700856209E0	3.574933052E0	4.531341887E0
1.410313060E1	-2.142999411E0	-1.719722748E0	2.226399899E0	3.536488274E0
1.412148717E1	-3.343265057E0	-3.487453461E-1	5.406502485E-1	3.404606768E0
1.413983097E1	-2.691453218E0	1.699836254E0	4.064667225E-2	3.183553968E0
1.415816196E1	-2.304532528E-1	3.889060020E0	-2.394511700E-1	3.903233712E0
1.417651852E1	1.833018899E0	4.771676064E0	-9.630849361E-1	5.201575082E0
1.419486227E1	2.109614849E0	4.073767185E0	-1.820384860E0	4.935570375E0
1.421319326E1	1.419868350E0	2.212523460E0	-1.880421758E0	3.232224030E0
1.423154982E1	4.175260663E-1	2.348804474E-1	-1.758745670E0	1.822822859E0
1.424989357E1	-7.215680480E-1	-1.430124283E0	-1.715647340E0	2.347202954E0
1.426823738E1	-1.379347563E0	-1.294156075E0	-1.191141605E0	2.235231077E0
1.428658113E1	-1.226566076E0	-1.948757172E-1	-1.410546422E0	1.879383434E0
1.430492493E1	-1.047702312E0	-8.209457397E-1	-2.122391701E0	2.505230244E0
1.432325592E1	-2.345675468E0	-3.522107124E0	-2.720514297E0	5.030768335E0
1.434161248E1	-5.233377457E0	-4.070782661E0	-2.509795666E0	7.089328978E0
1.435995623E1	-8.833926201E0	-2.892929077E0	-2.162105799E0	9.543688608E0
1.437828722E1	-1.155002594E1	-1.946786880E0	-9.709354639E-1	1.175311848E1
1.439664378E1	-1.247888184E1	-1.329227448E0	-2.217795372E0	1.274393792E1
1.441498753E1	-9.579471588E0	-2.303356171E0	-5.457859039E0	1.126321228E1
1.443331857E1	-5.777925968E0	-3.074861526E0	-2.466356993E0	6.994434839E0
1.445167514E1	-3.622750044E0	-4.408205986E0	2.144308567E0	6.095462011E0
1.447001889E1	-1.353668571E0	-6.508374214E0	-5.329818726E-1	6.668989668E0
1.448834988E1	1.570321620E-1	-5.239336967E0	3.042863846E0	6.060885360E0
1.450670644E1	1.885621667E0	-2.663180351E0	1.260608196E0	3.498175479E0
1.452505019E1	3.250259876E0	-5.516382217E0	2.325420618E0	6.811919192E0
1.454338118E1	2.779662132E0	-1.182136536E1	1.135016561E0	1.219669886E1
1.456173774E1	1.765554547E0	-1.509000111E1	-5.403270721E-1	1.520254155E1
1.458008154E1	2.181020260E0	-1.049919891E1	1.005987048E0	1.077042419E1
1.459841253E1	3.686453342E0	-4.912486076E0	2.891026020E0	6.788261128E0
1.461676904E1	3.918831825E0	-1.643077850E0	2.873589754E0	5.129762740E0
1.463511284E1	3.305840731E0	1.036404610E0	2.458782434E0	4.248332439E0
1.465344383E1	3.230005980E0	3.158675194E0	2.534047604E0	5.179919388E0
1.467180040E1	4.175940037E0	5.042744637E0	3.342607021E0	7.351242777E0
1.469014415E1	5.499856949E0	5.943391800E0	5.004584789E0	9.519359299E0
1.470847514E1	6.546310425E0	7.401087284E0	5.851734161E0	1.148359987E1
1.472683170E1	6.985847473E0	9.333064079E0	5.832287788E0	1.303547969E1
1.474517545E1	7.265480995E0	1.022690201E1	3.966646671E0	1.315716628E1
1.476350644E1	7.294694901E0	1.003621101E1	2.134672403E0	1.258947701E1
1.478186300E1	6.824747562E0	8.698241234E0	2.423212051E0	1.131850416E1
1.480020675E1	5.830972672E0	6.892385006E0	2.720098495E0	9.428899681E0
1.481853774E1	4.719614029E0	5.137698174E0	1.622235775E0	7.162565742E0
1.483689430E1	2.792119265E0	2.721526146E0	-7.358996868E-1	3.967894013E0
1.485523805E1	-1.020110369E0	-1.923407555E0	-6.168725491E0	6.541658503E0
1.487356909E1	-8.032947540E0	-1.023220348E1	-1.458204079E1	1.954129340E1
1.489192560E1	-1.442899895E1	-2.047755814E1	-1.520465088E1	2.930371659E1
1.491026941E1	-1.305932522E1	-1.033550549E1	-5.251268864E0	1.746265940E1
1.492860040E1	1.147913218E0	-1.337432861E-2	-2.258149862E0	2.533204379E0
1.494695691E1	1.112452507E1	2.719327450E0	-1.632033587E0	1.156777133E1
1.496530071E1	1.303027725E1	-1.446751595E0	5.081847191E0	1.406081030E1
1.498363170E1	9.421016693E0	-9.049673080E0	9.175853729E0	1.596397288E1
1.500198826E1	7.018225193E-1	-1.228222847E1	5.705629349E0	1.356096963E1
1.502033201E1	-2.622583389E0	1.352477074E0	1.065453529E1	1.105559859E1
1.503866300E1	-1.109746456E0	6.638764381E0	4.275898457E0	7.974210765E0
1.505701956E1	1.466585159E0	4.769028187E0	4.076107979E0	6.442760133E0
1.507536331E1	6.242489815E0	1.240461826E0	3.272115469E0	7.156407218E0
1.509369430E1	7.442823410E0	-8.402519226E-1	2.256533861E0	7.822633104E0
1.511205086E1	3.716430187E0	-4.174852371E-1	1.994621038E0	4.238473823E0
1.513039462E1	2.702159882E-1	6.610231400E-1	2.701009274E0	2.793818063E0
1.514872560E1	-2.308365107E0	1.094477654E0	9.867000580E-1	2.738614212E0
1.516708217E1	-3.453140259E0	7.377595901E-1	-1.165364623E0	3.718405783E0
1.518542592E1	-2.599083900E0	1.460213661E0	-8.020111918E-1	3.087180430E0
1.520375691E1	-9.507833719E-1	2.955122471E0	-5.715191364E-1	3.156480946E0
1.522211347E1	2.864551544E-2	3.350116253E0	-1.935629845E0	3.869206943E0
1.524045722E1	7.989633083E-2	2.782565117E0	-1.109295964E0	2.996596334E0
1.525880097E1	-5.302403569E-1	1.547980309E0	-7.721772194E-1	1.809324606E0
1.527714477E1	-8.686850071E-1	-7.526493073E-2	-2.151373148E0	2.321354103E0
1.529548852E1	-8.101529479E-1	-1.138141632E0	-2.326112509E0	2.713395212E0
1.531381951E1	-1.590339839E-1	-1.267810822E0	-2.015340328E0	2.386259149E0
1.533217607E1	-7.088285685E-2	-2.138967514E0	-2.393072128E0	3.210451778E0
1.535051982E1	-1.963041306E0	-3.970663071E0	-3.495789766E0	5.642715878E0
1.536885081E1	-5.359829426E0	-3.298853874E0	-2.841912985E0	6.905554125E0
1.538720738E1	-9.183519363E0	-3.384412766E0	-9.512379169E-1	9.833419102E0
1.540555112E1	-1.231770325E1	-3.843635559E0	-2.498426437E0	1.314311539E1
1.542388212E1	-1.287174988E1	-2.296323776E0	-1.897254229E0	1.321191210E1
1.544223863E1	-9.799659729E0	-1.624691010E0	-3.742671490E0	1.061510912E1
1.546058243E1	-6.972279549E0	-1.577211380E0	-2.167829990E0	7.469924010E0
1.547891342E1	-3.413807392E0	-3.606959343E0	9.276813269E-1	5.052210334E0
1.549726993E1	-1.495894790E0	-5.178770065E0	3.454649210E0	6.402496527E0
1.551561368E1	-7.580899596E-1	-3.820799828E0	3.307103157E0	5.109808509E0
1.553394467E1	1.624696732E0	-5.597860336E0	2.010513306E0	6.165861137E0
1.555230123E1	3.583190203E0	-1.075803852E1	2.869311571E0	1.169647783E1
1.557064498E1	3.277460098E0	-1.462971115E1	7.506582737E-1	1.501111858E1
1.558897597E1	3.202398062E0	-1.409142494E1	-9.711028337E-1	1.448332320E1
1.560733253E1	4.775963783E0	-8.721219063E0	1.411909342E0	1.004305631E1
1.562567628E1	5.132941246E0	-3.604912758E0	4.411655426E0	7.668453914E0
1.564400727E1	4.171241760E0	5.871601105E-1	4.118608475E0	5.891260526E0
1.566236378E1	2.947538853E0	2.833102226E0	2.558561802E0	4.822933963E0
1.568070753E1	3.091825247E0	4.377002716E0	2.460320234E0	5.896669551E0
1.569903852E1	4.289233208E0	5.439117432E0	4.696213722E0	8.368748011E0
1.571739508E1	5.659397125E0	6.942208290E0	5.970654964E0	1.076437423E1
1.573573883E1	7.059949875E0	9.138805389E0	4.644179344E0	1.244705017E1
1.575406982E1	8.605913162E0	1.058541012E1	3.032146454E0	1.397521237E1
1.577242633E1	9.535718918E0	1.094698524E1	3.667455196E0	1.497386553E1
1.579077008E1	8.950948715E0	1.025615597E1	3.877682686E0	1.415431528E1
1.580910107E1	7.519582748E0	8.168828011E0	3.450814247E0	1.162677921E1
1.582745764E1	5.529552460E0	6.131150246E0	1.693148732E0	8.428149641E0
1.584580139E1	3.151384115E0	3.798669815E0	-1.047013521E0	5.045527873E0
1.586413232E1	-2.359766960E-1	-2.377730370E0	-6.658830643E0	7.074553854E0
1.588248888E1	-7.368753433E0	-1.374704933E1	-1.491033554E1	2.157771995E1
1.590083264E1	-1.476033401E1	-2.087096024E1	-1.354862213E1	2.893146389E1
1.591916363E1	-1.317414474E1	-7.168186188E0	-3.629246712E0	1.543089157E1
1.593752014E1	1.632721663E0	-7.378416061E-1	-2.250848293E0	2.876892126E0
1.595586389E1	9.488719940E0	1.441185951E0	-2.876784801E0	1.001941684E1
1.597419488E1	8.537803650E0	-1.187097549E0	2.542957067E0	8.987208822E0
1.599255138E1	4.244565010E0	-8.754641533E0	8.354798317E0	1.282430253E1
1.601089514E1	-9.763445854E-1	-1.067297268E1	4.502473831E0	1.162488130E1
1.602922612E1	1.243572474E0	1.302803040E0	7.807930470E0	8.012961155E0
1.604758269E1	3.765540600E0	5.810907364E0	6.339237213E0	9.387857522E0
1.606592644E1	3.296693325E0	6.054841042E0	7.342282772E0	1.007166338E1
1.608425738E1	4.599912167E0	1.467065811E0	3.851939678E0	6.176480658E0
1.610261394E1	3.914523125E0	-2.914304733E0	1.709178090E0	5.170875469E0
1.612095769E1	6.140069962E-1	-1.637185097E0	1.412506104E0	2.247788496E0
1.613928863E1	-1.275807142E0	3.266487122E-1	1.913396835E0	2.322815252E0
1.615764519E1	-2.213585854E0	1.714881897E0	1.906369209E0	3.387480747E0
1.617598894E1	-2.248738766E0	2.323429585E0	-5.217949152E-1	3.275274188E0
1.619431988E1	-8.000168800E-1	2.304778099E0	-8.580967188E-1	2.586186202E0
1.621267644E1	8.355796337E-2	3.472870827E0	1.730836630E-1	3.478185111E0
1.623102019E1	2.881270051E-1	3.976480484E0	-8.208768368E-1	4.070534730E0
1.624935112E1	-2.373268008E-1	2.296631336E0	-2.500280380E0	3.403269235E0
1.626770764E1	-1.003661394E0	6.590251923E-1	-2.899542093E0	3.138310811E0
1.628605144E1	-1.274607420E0	-3.963642120E-1	-1.870067596E0	2.297581659E0
1.630439519E1	-1.009663701E0	-9.908361435E-1	-1.186578393E0	1.846387103E0
1.632273888E1	-4.607661963E-1	-8.286981583E-1	-1.870975733E0	2.097521470E0
1.634108264E1	-7.457920909E-1	-1.411000252E0	-2.364101887E0	2.852385893E0
1.635941363E1	-3.053184748E0	-3.280522346E0	-3.122289658E0	5.461909618E0
1.637777014E1	-7.054491043E0	-3.532943726E0	-4.118085861E0	8.899784627E0
1.639611389E1	-1.137024498E1	-2.999677658E0	-9.638891220E-1	1.179871261E1
1.641444488E1	-1.349797726E1	-3.112302780E0	-1.415835142E0	1.392430996E1
1.643280138E1	-1.198595428E1	-3.698090553E0	-2.296600819E0	1.275199393E1
1.645114514E1	-8.229956627E0	-4.123660088E0	-3.573420286E0	9.874517261E0
1.646947607E1	-6.583074093E0	-3.873001099E0	-8.909907341E-1	7.689659714E0
1.648783258E1	-4.054054260E0	-5.363763809E0	2.611204147E0	7.212746027E0
1.650617638E1	-1.590464115E0	-5.665320396E0	3.091068268E0	6.646813848E0
1.652450732E1	1.146884203E0	-4.650110245E0	1.497771740E0	5.018185812E0
1.654286383E1	4.317452431E0	-6.852536201E0	2.791544795E-1	8.104046835E0
1.656120758E1	4.783346176E0	-1.175510788E1	4.045581341E0	1.332027366E1
1.657953857E1	3.592629910E0	-1.309144592E1	1.398285508E0	1.364727623E1
1.659789508E1	2.799297333E0	-9.340840340E0	-7.468326092E-1	9.779832450E0
1.661623883E1	3.769194365E0	-4.612192154E0	2.465528488E0	6.446547398E0
1.663456977E1	4.009595871E0	-8.295278549E-1	4.139229774E0	5.822215956E0
1.665292628E1	3.743913174E0	2.058504105E0	2.721350193E0	5.065577151E0
1.667127003E1	3.831760883E0	3.489539146E0	2.469711304E0	5.740971072E0
1.668960097E1	4.217425823E0	4.720273495E0	4.178845406E0	7.584880445E0
1.670795753E1	4.349575996E0	6.355812073E0	6.229558468E0	9.905683074E0
1.672630123E1	4.294887066E0	8.506171227E0	6.403174400E0	1.148048981E1
1.674463222E1	4.727415562E0	9.895343781E0	4.688530922E0	1.192680211E1
1.676298873E1	5.883106709E0	1.002335930E1	2.993081331E0	1.200155040E1
1.678133243E1	7.500416756E0	9.164603233E0	2.472363472E0	1.209788350E1
1.679966342E1	8.519728661E0	7.802585125E0	2.995065451E0	1.193467755E1
1.681801993E1	7.509486198E0	6.328883648E0	2.717089653E0	1.018968731E1
1.683636368E1	5.178760529E0	5.180474281E0	9.791262150E-1	7.390234268E0
1.685469462E1	2.583557606E0	2.673494339E0	-2.454086781E0	4.454759680E0
1.687305112E1	-1.649767160E0	-3.977287292E0	-7.821845531E0	8.928707264E0
1.689139488E1	-9.223169327E0	-1.560889721E1	-1.392989922E1	2.286365274E1
1.690972581E1	-1.405571938E1	-2.043604279E1	-1.673105240E1	2.991860970E1
1.692808232E1	-7.444836617E0	-3.015485764E0	-6.017796516E0	1.003656423E1
1.694642607E1	5.313523293E0	3.509201527E0	-4.201614857E-1	6.381579805E0
1.696475701E1	1.085810089E1	3.149863243E0	7.691680431E0	1.367413402E1
1.698311357E1	8.700444221E0	-3.996833801E0	1.260605907E1	1.582988109E1
1.700145727E1	2.604918957E0	-1.605638504E1	-5.198823452E0	1.707691039E1
1.701978821E1	-4.757907867E0	-6.552778244E0	1.561336613E1	1.758845621E1
1.703814472E1	-3.993327618E-1	4.248384953E0	3.048452854E0	5.244168777E0
1.705648847E1	2.146409512E0	5.340559959E0	4.360419273E0	7.220935584E0
1.707481941E1	5.846455574E0	3.231950760E0	3.811633110E0	7.691234976E0
1.709317592E1	8.274242401E0	1.321392059E0	3.637394428E0	9.134538987E0
1.711151967E1	5.101267815E0	-7.868614197E-1	4.421269417E0	6.796301014E0
1.712985060E1	8.231738806E-1	-1.827613831E0	3.178494930E0	3.757741020E0
1.714820712E1	-2.565148354E0	-1.170865059E0	-1.595783234E-1	2.824247918E0
1.716655086E1	-4.367186069E0	1.408414841E-1	-2.024437189E0	4.815651194E0
1.718488180E1	-3.416310787E0	2.093933582E0	-9.712763429E-1	4.122998299E0
1.720323831E1	-9.388693571E-1	3.932023048E0	3.475154638E-1	4.057468166E0
1.722158201E1	3.413647413E-1	4.581171036E0	-8.491901159E-1	4.671700097E0
1.723992576E1	3.475373387E-1	3.027434349E0	-1.545575142E0	3.416861639E0
1.725826951E1	-6.119918823E-1	1.641564369E0	-1.448416471E0	2.273142740E0
1.727661321E1	-1.396373868E0	8.413248062E-1	-2.291534901E0	2.812262365E0
1.729495696E1	-1.184362292E0	3.018302917E-1	-2.266941786E0	2.575430182E0
1.731330066E1	-3.086888790E-2	-5.696964264E-2	-2.090497732E0	2.091501661E0
1.733164441E1	3.901935816E-1	-1.971398354E0	-2.808160782E0	3.453176722E0
1.734997534E1	-1.950472116E0	-5.181020737E0	-3.730191469E0	6.675450977E0
1.736833185E1	-6.548909187E0	-5.540922165E0	-2.379543304E0	8.902373634E0
1.738667555E1	-1.143337727E1	-3.557508469E0	3.509428501E-1	1.197919626E1
1.740500649E1	-1.499631119E1	-2.545111656E0	-2.317467928E0	1.538627961E1
1.742336300E1	-1.365749168E1	-1.562084198E0	-2.777753830E0	1.402437530E1
1.744170675E1	-8.152700424E0	-1.964182854E0	-3.153181314E0	8.959190303E0
1.746003769E1	-5.118792534E0	-2.972724915E0	-6.278556585E-1	5.952590457E0
1.747839420E1	-2.933778763E0	-6.122813225E0	1.845228672E-2	6.789421190E0
1.749673790E1	-1.466582537E0	-6.393998146E0	3.987175226E-1	6.572142139E0
1.751506883E1	8.639117479E-1	-5.177642822E0	-1.679780006E0	5.511441696E0
1.753342534E1	3.847356319E0	-7.876162529E0	4.049442291E0	9.655779083E0
1.755176904E1	4.575744629E0	-1.132502174E1	5.097335339E0	1.323542156E1
1.757009998E1	3.735713482E0	-1.245880508E1	-3.208917975E-1	1.301077826E1
1.758845649E1	3.164062023E0	-8.372257233E0	-6.631686687E-1	8.974729653E0
1.760680024E1	3.337561369E0	-4.014036179E0	1.706131577E0	5.492056745E0
1.762513118E1	3.637428284E0	-1.015747070E0	3.609428883E0	5.224040916E0
1.764348764E1	3.788650274E0	1.795704365E0	1.945182323E0	4.621921607E0
1.766183139E1	3.617444038E0	3.512914181E0	3.033913374E0	5.884819264E0
1.768016232E1	2.992368937E0	5.252207756E0	4.489859581E0	7.529860372E0
1.769851878E1	2.546172142E0	6.997027874E0	5.252698898E0	9.112202663E0
1.771686253E1	2.900776386E0	8.884620667E0	5.371626377E0	1.077985890E1
1.773519347E1	4.539124489E0	9.945954323E0	4.585241795E0	1.185538278E1
1.775354993E1	6.918399811E0	1.008496666E1	3.637596130E0	1.275942452E1
1.777189368E1	9.239799500E0	9.446532249E0	2.830051422E0	1.351369888E1
1.779023738E1	9.581468582E0	8.107370377E0	2.859032393E0	1.287276430E1
1.780858107E1	7.140833855E0	6.307920456E0	1.572895885E0	9.656882006E0
1.782692482E1	4.424537182E0	3.920622349E0	-7.552759647E-1	5.959719008E0
1.784525576E1	8.686275482E-1	-3.024024963E-1	-3.667706013E0	3.781273394E0
1.786361222E1	-5.016064644E0	-7.224395752E0	-1.048526764E1	1.368552651E1
1.788195592E1	-1.199837685E1	-1.472998142E1	-1.517515564E1	2.431499020E1
1.790028685E1	-1.388425636E1	-1.241539097E1	-9.511924744E0	2.091390016E1
1.791864336E1	-3.655839920E0	-1.805423737E0	-3.040482521E0	5.086182689E0
1.793698706E1	5.772961617E0	2.225777149E0	-9.889006615E-1	6.265707802E0
1.795531800E1	8.760469437E0	-1.704630852E0	4.552227974E0	1.001870104E1
1.797367451E1	7.707499504E0	-9.672468185E0	4.418808937E0	1.313347105E1
1.799201821E1	2.405864239E0	-1.228562069E1	5.447278976E0	1.365274722E1
1.801034915E1	1.080060482E0	1.379672527E0	7.915131092E0	8.106745779E0
1.802870566E1	2.561619282E0	6.103702545E0	6.434305191E0	9.231325008E0
1.804704935E1	2.443165779E0	4.719984531E0	6.833838940E0	8.657289856E0
1.806538029E1	4.044259071E0	5.128231049E-1	3.716042757E0	5.516157426E0
1.808373675E1	3.634191036E0	-2.853495598E0	3.214355469E0	5.628664379E0
1.810208050E1	7.073009014E-1	-2.039682388E0	2.762204885E0	3.505760209E0
1.812041138E1	-1.407402277E0	-3.455476761E-1	2.210666656E0	2.643337177E0
1.813876790E1	-2.752019882E0	1.392418861E0	-1.244861484E-1	3.086736224E0
1.815711159E1	-2.267442465E0	2.211871624E0	-1.824194908E0	3.655319203E0
1.817544253E1	3.889822960E-2	2.584518433E0	-6.476211548E-1	2.664706693E0
1.819379899E1	1.094731450E0	4.470200539E0	2.260093689E-1	4.607842232E0
1.821214274E1	9.425315857E-1	4.579701424E0	-1.273837090E0	4.846100685E0
1.823047363E1	-2.827579379E-1	2.435067177E0	-2.735995531E0	3.673578059E0
1.824883014E1	-1.199707508E0	2.188482285E-1	-3.301628113E0	3.519650671E0
1.826717383E1	-1.491782784E0	-1.052927017E0	-2.333546638E0	2.963023978E0
1.828550477E1	-1.250069141E0	-1.144108772E0	-6.029829979E-1	1.798679026E0
1.830386123E1	-1.782390773E-1	-3.621425629E-1	-1.093548894E0	1.165661009E0
1.832220498E1	-8.900523186E-3	-1.360208511E0	-3.175224781E0	3.454315970E0
1.834053586E1	-3.224544048E0	-4.031979561E0	-2.699683666E0	5.826048008E0
1.835889238E1	-9.195478439E0	-4.627193451E0	-1.673024058E0	1.042913000E1
1.837723607E1	-1.431372547E1	-4.007851601E0	-1.031936288E0	1.490001691E1
1.839556701E1	-1.551598358E1	-2.374181747E0	-1.759963989E0	1.579493459E1
1.841392347E1	-1.085090065E1	-3.000407219E0	-3.339416027E0	1.174292075E1
1.843226717E1	-7.522325993E0	-3.780539513E0	-1.571863174E0	8.564380957E0
1.845059810E1	-6.973871231E0	-5.717254639E0	5.152041912E-1	9.032569729E0
1.846895462E1	-5.278980255E0	-6.170628548E0	8.835967779E-1	8.168539188E0
1.848729831E1	-1.908220649E0	-4.208179474E0	2.201149464E-1	4.625854637E0
1.850562920E1	2.393221140E0	-3.878218651E0	-1.590655208E0	4.826828288E0
1.852398571E1	4.935467720E0	-7.736542702E0	4.287715435E0	1.012903935E1
1.854232941E1	4.528816223E0	-1.269690800E1	3.896109819E0	1.403215311E1
1.856066034E1	2.365967751E0	-1.293256378E1	-4.293798804E-1	1.315421516E1
1.857901680E1	1.352599621E0	-8.769894600E0	-9.923477769E-1	8.928904252E0
1.859736050E1	2.216620207E0	-4.407985687E0	1.915236115E0	5.292624334E0
1.861569144E1	2.874142647E0	-1.453178406E0	4.567613125E0	5.588874045E0
1.863404790E1	2.882720470E0	1.455429077E0	2.942943335E0	4.369126524E0
1.865239159E1	2.985563993E0	3.671596527E0	3.221318245E0	5.724605196E0
1.867072253E1	3.740148306E0	5.140810966E0	4.706587315E0	7.910032294E0
1.868907899E1	4.736375332E0	6.180203438E0	6.043647289E0	9.856664668E0
1.870742269E1	6.030474663E0	7.593757153E0	5.878352642E0	1.133961208E1
1.872575362E1	7.655853271E0	9.323979378E0	4.588245392E0	1.290738845E1
1.874411008E1	9.420145035E0	1.055647659E1	1.891289711E0	1.427428833E1
1.876245378E1	1.048797798E1	1.055915737E1	1.591446638E0	1.496750443E1
1.878079748E1	9.854370117E0	9.279227257E0	2.331601143E0	1.373495660E1
1.879914118E1	7.504895687E0	7.174485207E0	2.212885857E0	1.061572235E1
1.881748488E1	4.384654522E0	4.620017052E0	1.691627502E-2	6.369461437E0
1.883581581E1	1.646957397E-1	-5.066814423E-1	-2.308894634E0	2.369566459E0
1.885417227E1	-5.378228188E0	-9.936921120E0	-1.287170601E1	1.712742115E1
1.887251597E1	-1.297333527E1	-1.793372345E1	-1.480197334E1	2.662750983E1
1.889084691E1	-1.702665901E1	-1.255560207E1	-5.199225903E0	2.178490786E1
1.890920336E1	-6.472661018E0	4.300336838E-1	-2.586501360E0	6.983570642E0
1.892754706E1	5.185295105E0	4.416559219E0	3.005895615E-1	6.817890784E0
1.894587800E1	9.990508080E0	3.226068974E0	8.683650970E0	1.362437400E1
1.896423446E1	1.108380699E1	-5.612571716E0	1.102374554E0	1.247264881E1
1.898257816E1	2.552868366E0	-1.622544479E1	2.902460098E0	1.667952248E1
1.900090909E1	-1.582276821E0	-4.578629494E0	8.241542816E0	9.559836608E0
1.901926555E1	6.271791458E-1	2.818173885E0	5.859151363E0	6.531853675E0
1.903760925E1	1.192777872E0	3.542529583E0	5.961937904E0	7.036827302E0
1.905594019E1	4.394203186E0	2.317885399E0	3.267320871E0	5.946175245E0
1.907429665E1	5.744872093E0	5.547027588E-1	2.894328594E0	6.456654593E0
1.909264034E1	3.244189501E0	-6.084861755E-1	2.223304749E0	3.979711666E0
1.911097123E1	6.737356186E-1	-7.863388062E-1	2.082627058E0	2.325851213E0
1.912932774E1	-7.558774948E-1	-4.361753464E-1	7.149161100E-1	1.128142174E0
1.914767144E1	-1.375131369E0	4.776687622E-1	1.167685986E-1	1.460407009E0
1.916600232E1	-6.053094864E-1	2.258046150E0	-3.917042017E-1	2.370359503E0
1.918435883E1	5.953934789E-1	4.327284336E0	-3.167698383E-1	4.379523519E0
1.920270253E1	4.455940723E-1	4.599741936E0	-9.428979158E-1	4.716485602E0
1.922104623E1	-1.024917006E0	2.918980598E0	-1.772467375E0	3.565465355E0
1.923938993E1	-2.467277050E0	1.644553185E0	-2.277332067E0	3.738750134E0
1.925773357E1	-3.684394121E0	8.799238205E-1	-8.853338957E-1	3.890095381E0
1.927606451E1	-4.240805626E0	2.153873444E-2	-7.151210308E-1	4.300731840E0
1.929442097E1	-2.994194508E0	-9.461040497E-1	-2.407763720E0	3.956973560E0
1.931276467E1	-4.006731510E-1	-2.116302490E0	-3.862011909E0	4.422036996E0
1.933109560E1	-8.195245862E-1	-2.930053711E0	-2.943919659E0	4.233615270E0
1.934945206E1	-4.950960159E0	-4.021321297E0	-2.452128410E0	6.833444608E0
1.936779576E1	-8.680208206E0	-4.335401535E0	-1.556018472E0	9.826643092E0
1.938612665E1	-1.069691658E1	-3.506852150E0	-1.725190639E0	1.138851698E1
1.940448316E1	-9.728601456E0	-2.864883423E0	-3.651065826E0	1.077884618E1
1.942282685E1	-8.200550079E0	-3.275674820E0	-3.747796535E0	9.592968571E0
1.944115774E1	-7.682240486E0	-3.416176796E0	2.945079803E-1	8.412717619E0
1.945951420E1	-6.499908924E0	-4.581955910E0	1.938386798E0	8.185382053E0
1.947785790E1	-4.374499798E0	-5.365292549E0	7.589727640E-1	6.964097377E0
1.949618883E1	-1.890693903E0	-4.386418343E0	-9.847731590E-1	4.877003946E0
1.951454529E1	1.946606517E0	-5.749757767E0	5.839408040E-1	6.098358646E0
1.953288899E1	4.593420506E0	-1.160059071E1	5.097116470E0	1.347790091E1
1.955121993E1	4.225809097E0	-1.478707695E1	2.286233902E0	1.554805366E1
1.956957638E1	2.981770992E0	-1.138265705E1	-1.143419147E0	1.182215070E1
1.958792008E1	3.093371391E0	-5.954545021E0	1.291857958E0	6.833333737E0
1.960625097E1	2.937386751E0	-2.169610023E0	3.370324373E0	4.969359613E0
1.962460743E1	2.378183603E0	7.676992416E-1	3.255033493E0	4.103701063E0
1.964295112E1	1.989458799E0	2.830789089E0	1.604310274E0	3.813807105E0
1.966128206E1	2.713551760E0	4.165021896E0	2.480894089E0	5.555682319E0
1.967963852E1	3.650617599E0	5.971665382E0	4.564955711E0	8.356232222E0
1.969798222E1	4.832472801E0	7.636852264E0	6.480129242E0	1.112053870E1
1.971631310E1	5.656333923E0	9.998000145E0	6.188444614E0	1.304802541E1
1.973466962E1	6.815082550E0	1.105119419E1	3.621216297E0	1.347914874E1
1.975301326E1	8.597991943E0	1.028343010E1	8.773434162E-1	1.343294947E1
1.977134420E1	9.331283569E0	8.436210632E0	1.018981814E0	1.262065081E1
1.978970066E1	8.589757919E0	6.513011456E0	1.055375099E0	1.083130075E1
1.980804435E1	6.817803383E0	4.638928890E0	-2.619621754E-1	8.250498676E0
1.982637524E1	3.578976870E0	2.369221210E0	-1.910568714E0	4.698144037E0
1.984473175E1	-2.757174015E0	-5.678091049E-1	-7.637334824E0	8.139612948E0
1.986307545E1	-1.113853741E1	-6.520934105E0	-1.200845432E1	1.762931004E1
1.988140633E1	-1.411401844E1	-1.403482342E1	-9.081028938E0	2.187799971E1
1.989976279E1	-7.904537678E0	-9.415045738E0	-2.025041580E0	1.245895644E1
1.991810649E1	1.065570831E0	9.302372932E-1	-1.951526403E0	2.410236072E0
1.993643743E1	5.508388042E0	5.820533276E0	-1.378877521E0	8.131558870E0
1.995479388E1	6.684391022E0	1.706927776E0	7.477756023E0	1.017406118E1
1.997313758E1	5.127383232E0	-1.139114475E1	-6.785355806E-1	1.251034165E1
1.999146847E1	-1.832623959E0	-1.863026047E1	6.660192490E0	1.986965726E1
2.000982498E1	1.212571144E0	-1.046260834E0	6.545809746E0	6.738888316E0
2.002816863E1	5.281761646E0	3.627418041E0	4.982213974E0	8.116503177E0
2.004649956E1	6.828222275E0	4.204567432E0	5.259349823E0	9.589774100E0
2.006485602E1	8.215066910E0	1.781592369E0	4.402137756E0	9.488952130E0
2.008319972E1	5.668837547E0	-8.299970627E-1	4.314439774E0	7.172099053E0
2.010153060E1	5.504319668E-1	-1.954959869E0	2.750589848E0	3.419150180E0
2.011988712E1	-2.881501913E0	-1.818736076E0	2.145714998E0	4.026778743E0
2.013823076E1	-4.713516235E0	-5.940961838E-1	1.039334536E-1	4.751945679E0
2.015656170E1	-4.817995071E0	1.721384048E0	-8.483081460E-1	5.186122469E0
2.017491816E1	-2.688565731E0	3.950583458E0	3.032226562E-1	4.788260574E0
2.019326185E1	-4.850520492E-1	5.807147980E0	1.113014936E0	5.932709785E0
2.021159274E1	5.417544246E-1	6.044907570E0	-6.531652212E-1	6.104181369E0
2.022994925E1	6.965321302E-1	4.100688457E0	-3.146908283E0	5.215729534E0
2.024829295E1	-3.295523524E-1	1.056939125E0	-3.866595268E0	4.021975141E0
2.026662383E1	-2.416879654E0	-1.528885841E0	-2.996249199E0	4.142017436E0
2.028498029E1	-3.840997934E0	-2.191751480E0	-9.781050682E-1	4.529208453E0
2.030332399E1	-3.134066820E0	-7.524404526E-1	-9.543253183E-1	3.361439912E0
2.032165493E1	-1.857701182E0	-2.119190216E0	-3.327906132E0	4.360846257E0
2.034001138E1	-2.389206886E0	-5.552843094E0	-4.079957485E0	7.293039768E0
2.035835508E1	-7.182367325E0	-5.680956841E0	2.840089798E-2	9.157536657E0
2.037668597E1	-1.317102146E1	-3.662052155E0	1.520931721E-1	1.367148729E1
2.039504243E1	-1.573493767E1	-2.517220497E0	-1.951409817E0	1.605405440E1
2.041338613E1	-1.119815826E1	-3.996088982E0	-3.141197205E0	1.229774758E1
2.043171706E1	-6.048362255E0	-4.072154045E0	-3.452944279E0	8.067710253E0
2.045007352E1	-5.027707100E0	-4.482039452E0	-1.281716704E0	6.856333863E0
2.046841722E1	-4.885529518E0	-5.062211990E0	4.513692856E-2	7.035369660E0
2.048674810E1	-3.723169327E0	-2.415468216E0	1.830402374E0	4.800713425E0
2.050510462E1	-1.205000162E0	-1.012355804E0	-8.146947622E-1	1.772178665E0
2.052344826E1	2.043694973E0	-5.572606087E0	1.513151407E0	6.125377941E0
2.054177920E1	3.487246275E0	-1.294149590E1	6.089073658E0	1.472141368E1
2.056013566E1	2.582864046E0	-1.460396481E1	4.604075909E0	1.552882770E1
2.057847935E1	7.368193865E-1	-1.047883797E1	3.536418676E-1	1.051066175E1
2.059681024E1	4.766449928E-1	-6.040854454E0	4.383136928E-1	6.075461454E0
2.061516675E1	1.331961751E0	-3.068019867E0	1.123859525E0	3.528445584E0
2.063351040E1	2.253515244E0	-1.053533554E-1	2.795222282E0	3.592032557E0
2.065184133E1	2.887975693E0	3.155390263E0	3.048255444E0	5.252499649E0
2.067019779E1	3.981979847E0	5.048894882E0	3.255048990E0	7.207138611E0
2.068854149E1	5.136380196E0	6.302664757E0	3.535895586E0	8.866145845E0
2.070687238E1	6.115569115E0	7.679278851E0	5.941286087E0	1.147477188E1
2.072522883E1	6.560894966E0	9.938632965E0	5.963821411E0	1.331874370E1
2.074357253E1	6.666534901E0	1.132478237E1	4.393834114E0	1.385637621E1
2.076190347E1	7.228178024E0	1.096506977E1	1.262821436E0	1.319371178E1
2.078025993E1	8.078016281E0	9.006782532E0	8.068555593E-1	1.212548945E1
2.079860363E1	7.981162071E0	6.590055943E0	1.769719362E0	1.050046151E1
2.081693451E1	6.658183098E0	4.092221737E0	1.093548536E0	7.891357888E0
2.083529097E1	4.686044693E0	1.301749229E0	-4.541766644E-2	4.863705242E0
2.085363467E1	1.549077749E0	-2.936813354E0	-3.646895409E0	4.931973304E0
2.087196560E1	-6.162047863E0	-9.132752419E0	-1.310891438E1	1.712371562E1
2.089032206E1	-1.429184341E1	-1.701823807E1	-1.795800591E1	2.857214012E1
2.090866576E1	-1.377337837E1	-6.839447975E0	-4.879200459E0	1.613352403E1
2.092699665E1	-1.071626663E0	3.586431503E0	1.372999907E0	3.986979230E0
2.094535310E1	6.976504803E0	8.217185020E0	1.627067685E0	1.090142643E1
2.096369680E1	1.047010422E1	6.885774612E0	6.605676651E0	1.416587231E1
2.098202774E1	7.063515663E0	-8.083168030E0	3.620644093E0	1.132872114E1
2.100038420E1	-3.843835354E0	-3.125281334E1	6.728553772E0	3.219917464E1
2.101872790E1	-3.265712738E0	-5.211645126E0	2.733523846E0	6.730399485E0
2.103705878E1	3.859569550E0	5.316915512E0	4.047232628E0	7.716602855E0
2.105541529E1	8.491241455E0	5.748566628E0	5.163534641E0	1.148082269E1
2.107375894E1	1.119146156E1	4.466786861E0	2.557053566E0	1.231825961E1
2.109208988E1	9.751129150E0	1.145982742E0	6.550387383E0	1.180276963E1
2.111044633E1	3.339558125E0	-2.663873672E0	6.514774799E0	7.790453266E0
2.112880096E1	-2.599686146E0	-2.835559845E0	2.528459787E0	4.603463543E0
2.114713184E1	-6.906447411E0	-1.698089600E0	7.634866238E-2	7.112548997E0
2.116548830E1	-8.020031929E0	9.459104538E-1	2.768805027E-1	8.080366424E0
2.118383200E1	-4.865332127E0	3.713264465E0	-1.691566706E-1	6.122777447E0
2.120216294E1	-6.533098221E-2	4.976084709E0	-2.496443987E-1	4.982771267E0
2.122051940E1	2.607601643E0	5.600751877E0	-1.339739323E0	6.321622368E0
2.123885967E1	3.727584362E0	3.889638424E0	-3.137849092E0	6.234602567E0
2.125719055E1	2.252459764E0	5.978279114E-1	-4.748092175E0	5.289173140E0
2.127554701E1	-1.124659777E0	-2.190217972E0	-3.850255489E0	4.570162110E0
2.129389071E1	-4.783418655E0	-1.498854637E0	-1.228835583E-1	5.014255640E0
2.131222160E1	-7.206980705E0	-8.636283875E-2	-1.539005399E0	7.369977411E0
2.133057810E1	-8.016609192E0	-1.573258400E0	-5.286494732E0	9.730785759E0
2.134892175E1	-7.710772514E0	-4.351531029E0	-3.049979448E0	9.364518658E0
2.136725269E1	-8.139296532E0	-4.495162010E0	-6.609241962E-1	9.321558363E0
2.138560915E1	-9.517673492E0	-2.852625847E0	-1.635518074E-1	9.937320168E0
2.140395285E1	-1.104162979E1	-2.956507683E0	-2.846210957E0	1.177961981E1
2.142228373E1	-9.948426247E0	-3.086490631E0	-3.899088383E0	1.112207262E1
2.144064024E1	-7.194433212E0	-3.449717522E0	-3.227291107E0	8.606731558E0
2.145898389E1	-5.549304962E0	-5.424063683E0	1.189111471E0	7.850429191E0
2.147731482E1	-4.207425117E0	-7.112459183E0	-2.862061262E-1	8.268700968E0
2.149567128E1	-1.405364990E0	-5.776341438E0	-2.196221590E0	6.337551612E0
2.151401498E1	3.297371149E0	-6.211602211E0	-1.964676142E0	7.301822434E0
2.153234587E1	5.112627506E0	-9.541577339E0	5.913490295E0	1.233491085E1
2.155070232E1	4.261295319E0	-1.205747223E1	4.064627171E0	1.341873572E1
2.156904602E1	2.099446297E0	-1.121443748E1	-3.066833317E-1	1.141338414E1
2.158737691E1	-3.658374548E-1	-7.362178802E0	3.287203312E-1	7.378588674E0
2.160573342E1	-6.464548111E-1	-4.359855652E0	2.541657448E0	5.087854922E0
2.162407712E1	3.216402531E-1	-1.431004524E0	3.323892117E0	3.633109578E0
2.164240800E1	1.805393577E0	9.296483994E-1	3.292413235E0	3.868291228E0
2.166076446E1	3.345249891E0	3.009508133E0	4.662658691E0	6.479831951E0
2.167910816E1	4.582060337E0	4.940552711E0	5.725970745E0	8.842571968E0
2.169743904E1	5.290746689E0	6.860624313E0	5.076082706E0	1.004125401E1
2.171579550E1	5.668688774E0	8.964680672E0	4.948374748E0	1.170409948E1
2.173413920E1	6.309178829E0	1.112073231E1	5.046760559E0	1.374577087E1
2.175247014E1	7.634395123E0	1.197242165E1	3.968776703E0	1.474361073E1
2.177082660E1	9.087841034E0	1.171265697E1	3.099953413E0	1.514545804E1
2.178917024E1	9.384896278E0	9.967130661E0	2.792665005E0	1.397207750E1
2.180750118E1	8.066709518E0	7.714892864E0	1.262675881E0	1.123324195E1
2.182585764E1	6.199551582E0	5.369388580E0	-1.304265738E0	8.304569987E0
2.184420133E1	2.872533798E0	-4.220962524E-1	-4.532520771E0	5.382690796E0
2.186253222E1	-4.813493252E0	-1.276856422E1	-1.465571880E1	2.002488560E1
2.188088868E1	-1.519437027E1	-2.741721153E1	-2.057269096E1	3.749410606E1
2.189923238E1	-1.765713501E1	-1.050551987E1	-3.907485962E0	2.091432072E1
2.191756331E1	-2.928015232E0	3.978286266E0	9.085056782E-1	5.022491153E0
2.193591977E1	8.303418159E0	5.245071411E0	1.408935070E0	9.921825702E0
2.195426342E1	9.196528435E0	9.970188141E-1	1.018467331E1	1.375855197E1
2.197259436E1	6.940627098E0	-1.060649681E1	-9.055949450E-1	1.270787871E1
2.199095081E1	-4.324696064E-1	-1.762499237E1	1.179980183E1	2.121468145E1
2.200929451E1	8.411533833E-1	-1.275284767E0	2.087721586E0	2.586981189E0
2.202762540E1	4.413540840E0	4.452060699E0	7.790110111E0	9.999300114E0
2.204598186E1	5.859658241E0	6.038095474E0	6.012588501E0	1.034144149E1
2.206432555E1	8.289073944E0	4.302728653E0	2.589269638E0	9.691570459E0
2.208265644E1	6.977090836E0	1.000115395E0	2.460681915E0	7.465586569E0
2.210101295E1	1.699450731E0	-1.187066078E0	2.654609680E0	3.368116865E0
2.211935660E1	-2.522651672E0	-1.511238098E0	2.325837374E0	3.749284137E0
2.213768753E1	-5.516906738E0	-1.410842896E0	1.509644985E-1	5.696448711E0
2.215604399E1	-6.281274796E0	-1.430072784E-1	-6.346913576E-1	6.314879037E0
2.217438769E1	-4.359562874E0	2.544071674E0	6.668586731E-1	5.091442784E0
2.219271857E1	-1.740329504E0	5.411900520E0	-3.671920300E-1	5.696687108E0
2.221107503E1	4.342317581E-2	5.607357025E0	-3.677739620E0	6.705975477E0
2.222941873E1	3.479529917E-2	3.425824165E0	-2.046462059E0	3.990675242E0
2.224774962E1	-1.987277746E0	1.464626312E0	-4.310030937E-1	2.506026086E0
2.226610607E1	-6.083236694E0	5.790777206E-1	-1.734456658E0	6.352120873E0
2.228444977E1	-8.852466583E0	-1.192239761E0	-1.140555978E0	9.004913558E0
2.230278071E1	-7.125977516E0	-9.974832535E-1	-5.684432983E-1	7.217870613E0
2.232113717E1	-2.114645243E0	-2.680316925E0	-3.106798887E0	4.616061378E0
2.233948081E1	-3.091840744E-1	-6.051798820E0	-4.852396011E0	7.763092863E0
2.235781175E1	-3.061270475E0	-6.843194962E0	-2.833486080E0	8.014320780E0
2.237616821E1	-7.793229103E0	-5.120485306E0	-2.180568933E0	9.576464405E0
2.239451191E1	-1.039531040E1	-3.991157532E0	-2.110759974E0	1.133345157E1
2.241284279E1	-1.186661053E1	-2.528816223E0	-3.373414516E0	1.259330308E1
2.243119925E1	-9.907688141E0	-2.337959290E0	-3.442820549E0	1.074622498E1
2.244954295E1	-6.343847275E0	-3.079075813E0	-1.151183367E0	7.144951312E0
2.246787383E1	-3.240924835E0	-4.016959190E0	-7.071596980E-1	5.209570977E0
2.248623029E1	-1.011875033E0	-3.392386436E0	2.366894722E0	4.258446600E0
2.250457399E1	9.306353331E-1	-3.673498154E0	9.071069956E-1	3.896602868E0
2.252290488E1	2.524074316E0	-9.438684464E0	3.110390902E0	1.025349926E1
2.254126133E1	1.951783061E0	-1.479478836E1	4.017207623E0	1.545422845E1
2.255960503E1	1.281212687E0	-1.451978588E1	6.838569045E-1	1.459223589E1
2.257793592E1	2.484549284E0	-9.160531044E0	1.233360767E0	9.571284811E0
2.259629238E1	3.815884352E0	-4.249670982E0	2.820316553E0	6.369840053E0
2.261463607E1	3.365291119E0	1.288127899E-2	3.943614244E0	5.184346010E0
2.263296696E1	1.694409132E0	3.437718391E0	1.666357517E0	4.179195786E0
2.265132342E1	9.030861855E-1	5.342764854E0	2.569591522E0	5.996957690E0
2.266966712E1	1.908129573E0	6.175391197E0	5.191215515E0	8.290062330E0
2.268799800E1	3.378959894E0	6.879528046E0	8.003675461E0	1.108170100E1
2.270635446E1	5.883007050E0	7.558685303E0	6.581537724E0	1.162153752E1
2.272469816E1	8.559860229E0	8.658902168E0	5.324378967E0	1.328897307E1
2.274302904E1	1.020097923E1	1.012891865E1	2.328805447E0	1.456290854E1
2.276138550E1	1.086509418E1	1.025099564E1	1.787234426E0	1.504418127E1
2.277972920E1	1.003679562E1	9.083363533E0	2.067546129E0	1.369377619E1
2.279806008E1	7.794958115E0	6.952555656E0	1.783982515E0	1.059631992E1
2.281641654E1	5.112699509E0	4.003341675E0	-2.975463867E-4	6.493569197E0
2.283476024E1	1.835755706E0	4.344902039E-1	-2.969639063E0	3.518172382E0
2.285309113E1	-3.131494045E0	-5.183307648E0	-9.210312843E0	1.102283066E1
2.287144758E1	-1.160189247E1	-1.714771652E1	-1.906509018E1	2.814472871E1
2.288979128E1	-1.582165146E1	-2.063080215E1	-1.161957455E1	2.847752035E1
2.290812217E1	-8.495300293E0	-1.882205963E0	-6.730087996E-1	8.727300109E0
2.292647863E1	4.833574295E0	2.649428368E0	-1.308943272E0	5.665354678E0
2.294482227E1	7.470642090E0	-3.472949028E0	2.907793999E0	8.736540169E0
2.296315321E1	2.874225140E0	-1.009866524E1	7.164865971E0	1.271139308E1
2.298150967E1	-1.101797819E0	-9.068241119E0	1.008252430E1	1.360530234E1
2.299985331E1	3.515389204E0	8.543367386E-1	1.884557486E0	4.079143223E0
2.301818420E1	6.741116047E0	5.800911903E0	7.010166168E0	1.132411825E1
2.303654066E1	7.046629906E0	6.997604370E0	8.197076797E0	1.287686018E1
2.305488436E1	8.323867798E0	2.055367470E0	3.997363329E0	9.459927280E0
2.307321524E1	5.779650211E0	-3.604028702E0	2.762986898E0	7.350338499E0
2.309157170E1	-2.276980877E-1	-3.061538696E0	3.375449657E0	4.562732295E0
2.310991534E1	-4.161688328E0	-5.009298325E-1	3.077705145E0	5.200273973E0
2.312824628E1	-6.347542286E0	1.053976059E0	3.189353943E-1	6.442350378E0
2.314660274E1	-6.206035614E0	2.513837814E0	-2.808931351E0	7.261153760E0
2.316494639E1	-3.117386818E0	3.376543045E0	-1.399546623E0	4.803943615E0
2.318327727E1	-7.804477215E-1	3.933701515E0	-8.924285173E-1	4.108471117E0
2.320163373E1	-1.721101999E-1	3.206680298E0	-2.558458328E0	4.105865252E0
2.321997743E1	-6.808695793E-1	1.901563168E0	-3.348502636E0	3.910498148E0
2.323830831E1	-8.942505717E-1	1.425866127E0	-2.033556223E0	2.639721426E0
2.325666477E1	-1.376720667E0	1.392817497E0	-1.329362392E-1	1.962898983E0
2.327500842E1	-1.872103095E0	3.419303894E-1	-1.487753391E-1	1.908879381E0
2.329333930E1	-1.725185156E0	-8.165416718E-1	-1.970016956E0	2.742985770E0
2.331169576E1	-1.488422394E0	-1.565979004E0	-3.292349339E0	3.937925295E0
2.333003941E1	-2.302552462E0	-3.523893356E0	-2.954966545E0	5.143092407E0
2.334837029E1	-4.321010113E0	-4.931192398E0	-4.394022465E0	7.892732118E0
2.336672675E1	-7.209076881E0	-3.938458443E0	-2.484952688E0	8.582379288E0
2.338507045E1	-1.093015957E1	-3.868528366E0	-2.060494900E0	1.177622771E1
2.340340133E1	-1.431526661E1	-2.805860519E0	-1.585478187E0	1.467356304E1
2.342175774E1	-1.523320580E1	-2.194789886E0	-2.194771767E0	1.554621126E1
2.344010144E1	-1.129260159E1	-3.757944107E0	-1.436667204E0	1.198786917E1
2.345843232E1	-6.770322800E0	-5.843693733E0	6.728219986E-1	8.968763388E0
2.347678878E1	-2.307503939E0	-6.137659073E0	9.008389711E-1	6.618681453E0
2.349513243E1	2.059260368E0	-6.008947372E0	1.202612400E0	6.464849447E0
2.351346331E1	5.261878967E0	-6.924279213E0	3.349447727E0	9.319432009E0
2.353181977E1	5.680526257E0	-9.157775879E0	4.221999168E0	1.157404487E1
2.355016342E1	3.887912750E0	-1.197165966E1	-6.367797852E-1	1.260325311E1
2.356849430E1	2.104632139E0	-1.085590839E1	-2.464291573E0	1.132929638E1
2.358685076E1	1.800691605E0	-6.785570145E0	2.014770985E0	7.303817807E0
2.360519441E1	2.409996510E0	-2.211338997E0	4.253726959E0	5.365845355E0
2.362352529E1	2.533991814E0	1.758201599E0	3.656981945E0	4.783921438E0
2.364188175E1	2.656675100E0	4.244596958E0	3.075822830E0	5.876666743E0
2.366022540E1	3.108235359E0	5.580105782E0	3.794329643E0	7.429377163E0
2.367855628E1	3.847537279E0	6.971594810E0	5.467939377E0	9.659453315E0
2.369691274E1	4.623680592E0	9.084982872E0	6.344711304E0	1.200711029E1
2.371525639E1	5.554757595E0	1.050857067E1	5.334919930E0	1.302868989E1
2.373358727E1	6.943803787E0	1.074506569E1	2.873985291E0	1.311230869E1
2.375194373E1	8.341138840E0	1.005787182E1	2.609711647E0	1.332463799E1
2.377028738E1	9.065187454E0	8.521329880E0	3.091266155E0	1.281977429E1
2.378861826E1	8.195514679E0	6.784823895E0	1.856782079E0	1.080036739E1
2.380697467E1	6.194629192E0	4.854463100E0	-7.690963745E-1	7.907638842E0
2.382531837E1	3.166604996E0	1.349916458E0	-4.908294678E0	5.995082842E0
2.384364920E1	-4.611546993E0	-8.039842606E0	-1.215095711E1	1.528238180E1
2.386200566E1	-1.471966171E1	-2.021569443E1	-2.120998573E1	3.279033755E1
2.388034930E1	-1.574404621E1	-1.232852459E1	-8.205901146E0	2.161490974E1
2.389868019E1	-4.719782829E0	1.933901310E0	1.611146331E0	5.349029513E0
2.391703665E1	6.179500580E0	5.117270470E0	6.102538109E-1	8.046433632E0
2.393538029E1	8.478494644E0	2.017429352E0	4.292425632E0	9.714927196E0
2.395371118E1	5.013406754E0	-9.407668114E0	7.215422153E0	1.287248164E1
2.397206758E1	-1.314318895E0	-2.386476898E1	7.300094128E0	2.499091849E1
2.399041123E1	-1.081170082E0	-2.903920174E0	4.821207047E0	5.731118434E0
2.400874212E1	3.441583157E0	7.533653736E0	5.663075447E0	1.003348677E1
2.402709857E1	6.319332123E0	8.866087914E0	7.511670113E0	1.322749641E1
2.404544222E1	8.321537018E0	4.579683304E0	4.046917439E0	1.032468006E1
2.406377311E1	7.063677788E0	-7.602329254E-1	2.255533457E0	7.453920389E0
2.408212951E1	1.226339579E0	-2.305612564E0	2.370196104E0	3.526696419E0
2.410047316E1	-2.804596424E0	-7.848949432E-1	2.700556278E0	3.971753440E0
2.411880404E1	-5.869948387E0	1.198091507E-1	3.597376347E-1	5.882181523E0
2.413716050E1	-6.704350948E0	1.373659134E0	-2.068376064E0	7.149366447E0
2.415550415E1	-4.039780617E0	2.674207687E0	-1.590631723E0	5.099149288E0
2.417383498E1	-1.063374400E0	4.267253876E0	-1.120305061E0	4.538204952E0
2.419219144E1	1.452862024E-1	4.134238243E0	-2.677754641E0	4.927819380E0
2.421053508E1	-4.284328222E-1	2.874777794E0	-2.690858841E0	3.960886687E0
2.422886597E1	-8.986224532E-1	9.252014160E-1	-2.860409260E0	3.137747776E0
2.424722238E1	-8.492135406E-1	-3.280420303E-1	-2.229024887E0	2.407763933E0
2.426556602E1	-3.228729963E-2	-1.076636314E0	-1.251407623E0	1.651123636E0
2.428389691E1	8.818514347E-1	-1.504961014E0	-8.484834433E-1	1.939714865E0
2.430225331E1	-1.244396925E0	-2.928342819E0	-1.730051756E0	3.621711536E0
2.432059696E1	-5.768424511E0	-3.918915749E0	-3.227685452E0	7.684437218E0
2.433892784E1	-9.517630577E0	-3.152748108E0	-1.939259410E0	1.021204385E1
2.435728425E1	-1.130826569E1	-2.837354660E0	-1.339852810E-1	1.165956287E1
2.437562790E1	-1.161858559E1	-3.386426926E0	2.486977577E-1	1.210459702E1
2.439395878E1	-1.090421677E1	-3.073671341E0	-7.641838789E-1	1.135488335E1
2.441231519E1	-9.075727463E0	-3.198441505E0	-3.507170200E0	1.024202616E1
2.443065883E1	-7.683542252E0	-3.303526878E0	-2.151067257E0	8.635809268E0
2.444898972E1	-6.903615475E0	-4.414074898E0	-6.489340067E-1	8.219798001E0
2.446734613E1	-4.996353626E0	-4.027248383E0	-5.396175385E-1	6.439989610E0
2.448568977E1	-2.895136356E0	-2.766714096E0	-1.878962159E0	4.423462468E0
2.450402066E1	9.078311920E-2	-4.806989670E0	-9.962481260E-1	4.909979795E0
2.452237706E1	3.611486435E0	-1.063766575E1	6.219732761E0	1.284086611E1
2.454072071E1	3.826117754E0	-1.401268196E1	5.439466953E0	1.551071351E1
2.455905160E1	2.878642082E0	-1.210717106E1	1.402995586E0	1.252352059E1
2.457740800E1	1.587970972E0	-6.993059158E0	5.739688873E-1	7.194023108E0
2.459575165E1	4.442449808E-1	-3.811887741E0	1.461060524E0	4.106402271E0
2.461408253E1	4.958000183E-1	-7.702779770E-1	2.406582355E0	2.575030962E0
2.463243894E1	6.012561321E-1	2.767719746E0	3.330311298E0	4.371813682E0
2.465078258E1	1.673892260E0	5.369307518E0	5.062794685E0	7.567249735E0
2.466911347E1	3.363542318E0	6.691974640E0	5.969097137E0	9.577372403E0
2.468746988E1	5.027675629E0	7.961949825E0	6.498601913E0	1.144124093E1
2.470581352E1	6.521450043E0	9.505104065E0	6.281257629E0	1.312747163E1
2.472414436E1	8.710825920E0	1.023499298E1	4.368417740E0	1.413211389E1
2.474250081E1	1.073174858E1	1.033131886E1	2.196027756E0	1.505752685E1
2.476084446E1	1.136779690E1	8.930650711E0	1.978282571E0	1.459098798E1
2.477917529E1	9.162111282E0	6.882073402E0	2.689967632E0	1.177043514E1
2.479753170E1	5.806449890E0	4.894277573E0	1.688225746E0	7.779390687E0
2.481587535E1	2.846772194E0	2.420444012E0	-1.485738993E0	4.021203985E0
2.483420623E1	-1.460323572E0	-1.257008553E0	-5.435382843E0	5.766801721E0
2.485256264E1	-8.433056831E0	-9.335663795E0	-1.323629284E1	1.826117505E1
2.487090628E1	-1.351896667E1	-2.006038475E1	-1.688164520E1	2.949866846E1
2.488923712E1	-1.183752632E1	-1.070197773E1	-5.149415970E0	1.676829871E1
2.490759357E1	-9.750676155E-1	1.149105549E0	-1.574071407E0	2.179197378E0
2.492593722E1	5.321876526E0	6.441572189E0	-8.049796820E-1	8.394296535E0
2.494426805E1	6.956257820E0	7.644937515E0	2.440065145E0	1.062019352E1
2.496262451E1	6.642807961E0	-1.023571968E0	8.830254555E0	1.109720653E1
2.498096811E1	2.865032196E0	-1.956213760E1	-3.009243011E0	1.999852946E1
2.499929899E1	-3.640493870E0	-1.479271889E1	1.345779419E1	2.032707436E1
2.501765540E1	1.451375008E0	2.085019112E0	1.892546177E0	3.167889698E0
2.503599904E1	5.017602921E0	6.034790039E0	4.617058754E0	9.105617026E0
2.505432988E1	7.511702538E0	5.896644592E0	3.648912430E0	1.022304526E1
2.507268633E1	8.761086464E0	3.896390915E0	2.764809608E0	9.979111702E0
2.509102998E1	5.211847305E0	6.564521790E-1	4.790141582E0	7.109130620E0
2.510936081E1	-6.969451904E-2	-1.324510574E0	3.932315588E0	4.149974876E0
2.512771722E1	-4.590212822E0	-1.893729210E0	1.785413980E0	5.276738306E0
2.514606087E1	-7.959390640E0	-1.032997131E0	-8.479908109E-1	8.070815997E0
2.516439175E1	-7.399471760E0	1.275204659E0	-9.996911287E-1	7.574807694E0
2.518274816E1	-3.399625301E0	3.710142612E0	9.993863106E-2	5.033149921E0
2.520109180E1	-3.488776088E-1	4.562321663E0	-1.806706071E0	4.919418804E0
2.521942264E1	4.288064241E-1	3.390717030E0	-2.373199701E0	4.160878963E0
2.523777910E1	3.260727227E-2	1.932227612E0	-2.805357218E0	3.406551907E0
2.525612269E1	-1.397374570E-1	6.086540222E-1	-3.469903946E0	3.525651666E0
2.527445357E1	-9.062013030E-2	-4.043073654E-1	-2.589056492E0	2.622001139E0
2.529280998E1	-1.916698813E-1	-7.758331299E-1	-2.435121536E-1	8.354355498E-1
2.531115363E1	-1.664096475E0	-1.692126274E0	-1.058362126E0	2.598583998E0
2.532948451E1	-5.011481762E0	-3.476589203E0	-3.132768869E0	6.856811411E0
2.534784092E1	-9.085010529E0	-2.764087677E0	-1.384524584E0	9.596588212E0
2.536618456E1	-1.194561291E1	-2.691336632E0	-1.005060554E0	1.228621615E1
2.538451540E1	-1.233471966E1	-2.954374313E0	-2.242057085E0	1.288023511E1
2.540287180E1	-1.144248772E1	-3.562829971E0	-3.230805397E0	1.241218700E1
2.542121545E1	-9.474735260E0	-4.504966736E0	-4.716812134E0	1.150276707E1
2.543954633E1	-7.667998791E0	-3.903741837E0	-3.048342466E0	9.128515628E0
2.545790274E1	-5.622744560E0	-4.215768814E0	9.013949633E-1	7.085229422E0
2.547624639E1	-2.672728777E0	-4.125428200E0	1.948050976E0	5.287488965E0
2.549457722E1	-1.052535892E0	-2.540369987E0	3.404069901E0	4.375957423E0
2.551293368E1	4.597419500E-2	-3.871791840E0	2.669794798E0	4.703263754E0
2.553127727E1	1.384805322E0	-1.039168262E1	1.550989866E0	1.059765649E1
2.554960816E1	5.071731806E-1	-1.559346104E1	-2.490373105E-1	1.560369416E1
2.556796456E1	3.233550191E-1	-1.432488728E1	-1.656967163E0	1.442402489E1
2.558630821E1	2.708440781E0	-6.895041466E0	2.801972866E0	7.920119962E0
2.560463904E1	3.461987019E0	-1.828853607E0	5.071625233E0	6.407139934E0
2.562299550E1	2.929349899E0	1.053732872E0	2.837370634E0	4.212139114E0
2.564133915E1	1.553406119E0	3.159348011E0	1.802214742E0	3.955063641E0
2.565966998E1	9.160022736E-1	4.132312775E0	2.950611353E0	5.159571338E0
2.567802639E1	1.757382154E0	4.864709854E0	4.352018356E0	6.759723203E0
2.569637003E1	3.026973248E0	6.325366974E0	5.639159679E0	8.998497446E0
2.571470087E1	4.730031967E0	8.377927780E0	6.232367992E0	1.146321452E1
2.573305732E1	6.821369648E0	9.393986702E0	4.931056023E0	1.261322257E1
2.575140097E1	9.418065071E0	9.456829071E0	2.575731993E0	1.359286434E1
2.576973180E1	1.070584393E1	9.206267357E0	1.428669810E0	1.419195371E1
2.578808821E1	9.303387642E0	8.081877708E0	2.075299740E0	1.249706517E1
2.580643186E1	6.366461754E0	6.457034588E0	1.524112940E0	9.195001424E0
2.582476269E1	3.828846216E0	4.549506187E0	-7.161035538E-1	5.989229850E0
2.584311915E1	4.963555336E-1	1.041919231E0	-4.111930847E0	4.270824252E0
2.586146279E1	-5.119472027E0	-7.537384987E0	-1.318734741E1	1.602895187E1
2.587979363E1	-1.125429916E1	-1.833412933E1	-1.733949661E1	2.763073815E1
2.589815003E1	-1.247178078E1	-1.449182034E1	-4.009707928E0	1.953550435E1
2.591649368E1	-3.761504650E0	2.462148190E0	-1.177655816E0	4.647360989E0
2.593482451E1	5.645180702E0	3.721622467E0	2.161040306E-1	6.765001101E0
2.595318097E1	6.141266823E0	-4.822207451E0	1.064975166E1	1.320553117E1
2.597152462E1	4.264499187E0	-2.052766800E1	-2.219605923E0	2.108311545E1
2.598985545E1	-6.640634537E-1	-7.957116127E0	1.542645168E1	1.737043721E1
2.600821186E1	4.053217411E0	5.478090286E0	1.298373103E0	6.937133218E0
2.602655550E1	6.861737728E0	9.581345558E0	6.354264736E0	1.338888747E1
2.604488633E1	8.307662964E0	7.163369179E0	5.506268501E0	1.227396084E1
2.606324279E1	8.250288963E0	1.046968460E0	3.013982773E0	8.845761872E0
2.608158644E1	2.829973936E0	-3.188098907E0	2.962390184E0	5.191192804E0
2.609991727E1	-2.122405767E0	-2.797473907E0	3.851626158E0	5.212052433E0
2.611827368E1	-6.195158958E0	-1.621222496E0	7.542387247E-1	6.448041017E0
2.613661732E1	-7.837575912E0	2.248296738E-1	-1.603011250E0	8.002986295E0
2.615494816E1	-6.006338596E0	2.638691902E0	-4.719817638E-2	6.560565978E0
2.617330462E1	-2.496029854E0	4.491899967E0	9.512007236E-1	5.226099230E0
2.619164826E1	-3.268789649E-1	5.464773178E0	-7.189468145E-1	5.521546909E0
2.620997910E1	9.967359900E-2	4.707926273E0	-1.971996784E0	5.105220459E0
2.622833550E1	3.250548840E-1	2.295414448E0	-4.424162865E0	4.994777795E0
2.624667915E1	8.422437310E-1	-8.771896362E-1	-5.435898781E0	5.570263164E0
2.626500998E1	7.957186699E-1	-2.706519127E0	-2.360349655E0	3.678269223E0
2.628336644E1	4.764103889E-2	-2.730273247E0	-6.491079330E-1	2.806778007E0
2.630171008E1	-2.704223156E0	-2.573523521E0	-2.674571276E0	4.592295472E0
2.632004092E1	-7.121612072E0	-3.057360649E0	-4.100091934E0	8.767871265E0
2.633839732E1	-1.086392784E1	-3.437244415E0	-1.030476570E0	1.144121756E1
2.635674097E1	-1.253252220E1	-3.167259216E0	-8.204617500E-1	1.295255964E1
2.637508462E1	-1.154919434E1	-2.925346375E0	-2.005936623E0	1.208161094E1
2.639342826E1	-9.571468353E0	-3.017704010E0	-2.982958078E0	1.046984159E1
2.641177191E1	-8.251567841E0	-3.427877426E0	-4.062505245E0	9.815429911E0
2.643010274E1	-8.047946930E0	-3.666156769E0	-7.333575487E-1	8.874005214E0
2.644845915E1	-6.523838997E0	-4.907490730E0	3.518613577E-1	8.171153342E0
2.646680279E1	-3.625946999E0	-3.866922379E0	-8.829594851E-1	5.374029938E0
2.648513368E1	7.758893371E-1	-3.746147156E0	7.807314396E-3	3.825661215E0
2.650349008E1	4.689595222E0	-8.707436562E0	3.881643772E0	1.062444884E1
2.652183373E1	4.890276909E0	-1.440323734E1	4.954769135E0	1.599743077E1
2.654016456E1	3.126002789E0	-1.454378986E1	-3.977545500E-1	1.488126089E1
2.655852097E1	1.324598670E0	-9.110157013E0	-1.345249057E0	9.303720625E0
2.657686462E1	5.780663490E-1	-4.093408585E0	2.276493311E0	4.719383046E0
2.659519550E1	4.304261208E-1	-1.243170738E0	4.056325912E0	4.264331136E0
2.661355191E1	5.072374344E-1	1.365242958E0	3.141303539E0	3.462508639E0
2.663189555E1	5.653984547E-1	3.629596710E0	4.768424034E0	6.019262036E0
2.665022639E1	1.886645794E0	5.133904457E0	4.499780655E0	7.082685456E0
2.666858279E1	3.630154133E0	6.355166435E0	4.870078087E0	8.791121659E0
2.668692644E1	5.651874542E0	7.738339424E0	5.635947704E0	1.111708098E1
2.670525732E1	8.037244797E0	9.244786263E0	5.753861427E0	1.353404220E1
2.672361373E1	9.952626228E0	1.065189362E1	4.088144302E0	1.514036097E1
2.674195738E1	1.106716156E1	1.102174664E1	2.017201900E0	1.574897036E1
2.676030102E1	9.872871399E0	9.566172600E0	2.273162365E0	1.393386217E1
2.677864462E1	7.257563591E0	7.364129543E0	1.767910719E0	1.048942999E1
2.679698826E1	5.273229122E0	5.371012688E0	-3.183715343E-1	7.533663325E0
2.681531915E1	2.097809553E0	2.197134972E0	-4.240422249E0	5.216261866E0
2.683367555E1	-4.823719025E0	-6.139940262E0	-1.073676872E1	1.327574232E1
2.685201920E1	-1.444475555E1	-1.873781395E1	-1.716441727E1	2.922967422E1
2.687035003E1	-1.659842682E1	-1.800733376E1	-1.212901783E1	2.732919529E1
2.688870644E1	-5.373339653E0	-2.025508881E0	-5.207028389E-1	5.765986186E0
2.690705008E1	6.327731609E0	2.140218735E0	-6.451715231E-1	6.710958936E0
2.692538097E1	7.927962303E0	3.281764507E0	3.819231272E0	9.391969552E0
2.694373738E1	5.799666405E0	5.873699188E-1	9.540737152E0	1.118064395E1
2.696208102E1	4.583578587E0	-9.036038399E0	-3.624361515E0	1.076081684E1
2.698041186E1	2.411580086E-1	-1.113441753E1	1.510628128E1	1.876787535E1
2.699876831E1	1.757315278E0	-2.608571053E0	4.270153046E0	5.303490073E0
2.701711191E1	1.985513926E0	2.281471252E0	7.213738441E0	7.822109621E0
2.703544279E1	4.268550873E0	3.355941296E0	3.785284519E0	6.619006529E0
2.705379920E1	6.463597775E0	3.090761662E0	1.761137009E0	7.377838938E0
2.707214285E1	4.103496552E0	1.811236382E0	1.437839031E0	4.710269871E0
2.709047368E1	4.522061348E-2	6.145458221E-1	2.487227440E0	2.562423035E0
2.710883014E1	-2.649925232E0	2.726411819E-1	1.598934770E0	3.106932466E0
2.712717378E1	-4.434926510E0	1.300344467E-1	-1.375338316E0	4.645108996E0
2.714551738E1	-4.125638485E0	5.899801254E-1	-1.915826917E0	4.586868456E0
2.716386102E1	-1.816270351E0	2.617271900E0	-3.936082125E-1	3.209965360E0
2.718220467E1	-5.745837688E-1	4.256111145E0	-1.123078227E0	4.439136548E0
2.720054831E1	-1.216184616E0	3.328894615E0	-2.261225224E0	4.204019968E0
2.721889196E1	-2.597602367E0	2.199601650E0	-1.296879292E0	3.642482859E0
2.723723561E1	-3.085917473E0	1.086625099E0	-2.587008476E-2	3.271744186E0
2.725556644E1	-2.770452976E0	-2.405281067E-1	-1.364765167E0	3.097716486E0
2.727392290E1	-6.832686663E-1	-6.193971634E-1	-2.786764860E0	2.935399002E0
2.729226649E1	1.783026338E0	-7.810106277E-1	-2.613803864E0	3.259007695E0
2.731059738E1	3.733873367E-1	-3.151689529E0	-2.134709597E0	3.824859482E0
2.732895378E1	-5.612231255E0	-5.936264038E0	-2.912870169E0	8.673014643E0
2.734729743E1	-1.163560772E1	-5.330175400E0	-6.116085052E-1	1.281297006E1
2.736562831E1	-1.517609978E1	-2.790553093E0	-7.086899281E-1	1.544679360E1
2.738398472E1	-1.340546131E1	-1.613378525E0	-1.904923439E0	1.363591275E1
2.740232837E1	-9.414724350E0	-3.647669792E0	-3.036561251E0	1.054339764E1
2.742065920E1	-7.582879543E0	-3.897455215E0	-2.413357496E0	8.860841593E0
2.743901566E1	-7.502334118E0	-4.700827599E0	1.195833683E-1	8.854213546E0
2.745735930E1	-6.745314598E0	-4.053172112E0	1.189857841E0	7.958846328E0
2.747569014E1	-5.098128796E0	-2.459638596E0	-1.282426119E0	5.803908682E0
2.749404654E1	-1.098926187E0	-3.747685432E0	-2.798487186E0	4.804613970E0
2.751239019E1	4.001648426E0	-9.098909378E0	5.380226135E0	1.130266231E1
2.753072107E1	5.774968147E0	-1.524084473E1	5.945316792E0	1.734878661E1
2.754907748E1	4.807241440E0	-1.341953945E1	9.155924320E-1	1.428397420E1
2.756742113E1	3.181822538E0	-6.821843147E0	1.284879804E0	7.636259209E0
2.758575196E1	9.529556036E-1	-2.938665390E0	1.842711926E0	3.597146911E0
2.760410842E1	-5.306053162E-2	-2.956008911E-1	3.533617020E0	3.546356517E0
2.762245206E1	-4.096565247E-1	2.098368168E0	4.420484543E0	4.910361599E0
2.764078290E1	-4.943161011E-1	4.188268185E0	5.052194118E0	6.581079258E0
2.765913930E1	8.112745285E-1	5.088173389E0	4.124968052E0	6.600230013E0
2.767748295E1	2.541926146E0	5.712717056E0	4.911242008E0	7.950900751E0
2.769581383E1	4.451480865E0	7.158459663E0	5.665527344E0	1.015664446E1
2.771417024E1	7.058726311E0	9.005301476E0	5.450282574E0	1.267385703E1
2.773251389E1	9.808664322E0	1.015861034E1	3.426795721E0	1.453100784E1
2.775084472E1	1.160172844E1	1.050041103E1	2.026697159E0	1.577866395E1
2.776920118E1	1.065133190E1	9.813688278E0	1.679487348E0	1.458012437E1
2.778754482E1	7.704541206E0	7.821981907E0	1.053250194E0	1.102962792E1
2.780587566E1	5.528198242E0	5.435730934E0	-1.010943890E0	7.818577501E0
2.782423206E1	2.313259840E0	1.829144478E0	-3.739166975E0	4.762174952E0
2.784257571E1	-3.923398018E0	-6.982558250E0	-1.070181084E1	1.336704630E1
2.786090660E1	-1.195891762E1	-1.886191559E1	-1.712028694E1	2.814057205E1
2.787926300E1	-1.452337551E1	-1.693907356E1	-6.201759815E0	2.315863714E1
2.789760665E1	-4.843015671E0	-1.575334549E0	-4.117953777E-2	5.092953513E0
2.791593753E1	6.066100121E0	2.351616859E0	-1.106441498E0	6.599385222E0
2.793429394E1	8.227024078E0	-1.009540558E-1	2.282447577E0	8.538365408E0
2.795263758E1	4.432289600E0	-6.155367851E0	7.418717384E0	1.060995345E1
2.797096842E1	-5.447015762E-1	-1.394039440E1	2.759041548E0	1.422123786E1
2.798932488E1	-4.170250893E-2	-2.759252548E0	8.568496704E0	9.001908103E0
2.800766852E1	3.948237419E0	2.576224804E0	4.829151154E0	6.748793509E0
2.802599936E1	4.703896523E0	4.762179852E0	5.991197586E0	8.983287146E0
2.804435576E1	7.348990917E0	2.981687546E0	3.167211533E0	8.539868677E0
2.806269941E1	7.324081421E0	7.083845139E-1	2.236117363E0	7.690526519E0
2.808103029E1	2.840272665E0	-2.515125275E-2	1.706186056E0	3.313435114E0
2.809938670E1	-1.007133007E0	4.000558853E-1	2.345144749E0	2.583421278E0
2.811773035E1	-3.680236101E0	7.588329315E-1	2.005964756E0	4.259560984E0
2.813606123E1	-5.752758980E0	1.046889305E0	9.989345074E-2	5.848093005E0
2.815441764E1	-5.833965302E0	1.750862598E0	1.175699234E-1	6.092166582E0
2.817276128E1	-3.853834391E0	3.066592693E0	-1.111819267E0	5.048977356E0
2.819109217E1	-1.722865343E0	3.217158318E0	-2.734987020E0	4.560540169E0
2.820944857E1	-1.039234638E0	3.031264782E0	-2.812900066E0	4.263916227E0
2.822779222E1	-9.279569387E-1	2.284938335E0	-2.457820892E0	3.481799939E0
2.824612305E1	-9.211606979E-1	1.158074379E0	-1.729665399E0	2.276272323E0
2.826447951E1	-8.948931694E-1	-2.920160294E-1	-1.583721042E0	1.842357046E0
2.828282316E1	-8.877609968E-1	-1.386198997E0	-1.754024506E0	2.405466527E0
2.830115399E1	-1.984338999E0	-1.814914703E0	-1.803131819E0	3.237715398E0
2.831951045E1	-5.121808052E0	-2.635247231E0	-2.856646299E0	6.429453613E0
2.833785410E1	-8.686238289E0	-3.327719688E0	-1.737576127E0	9.462749322E0
2.835618493E1	-1.110365486E1	-4.054120064E0	-1.205151677E0	1.188189511E1
2.837454139E1	-1.081017494E1	-3.773932457E0	-1.254693031E0	1.151853737E1
2.839288498E1	-8.710771561E0	-3.794707298E0	-3.131857395E0	1.000429285E1
2.841121587E1	-7.634702682E0	-4.168148994E0	-4.322253227E0	9.713085197E0
2.842957227E1	-7.360711098E0	-4.427511215E0	-1.763455987E0	8.768848296E0
2.844791592E1	-6.993287086E0	-5.119300842E0	5.668950081E-2	8.666978660E0
2.846624680E1	-5.385094166E0	-3.827542305E0	1.117171049E-1	6.607707619E0
2.848460321E1	-3.062544107E0	-2.588690758E0	-1.200746298E0	4.185963201E0
2.850294686E1	1.268689990E0	-4.755781174E0	1.576856613E0	5.168510969E0
2.852127774E1	5.330246449E0	-1.022860050E1	6.684355736E0	1.333103173E1
2.853963415E1	4.853379250E0	-1.482550430E1	2.423281908E0	1.578680345E1
2.855797779E1	3.018365860E0	-1.360654545E1	-2.069347620E0	1.409009621E1
2.857630868E1	1.611709952E0	-7.410110474E0	7.830491066E-1	7.623681008E0
2.859466508E1	4.886929989E-1	-3.404585838E0	3.266900778E0	4.743697531E0
2.861300873E1	-1.944000721E-1	-6.509685516E-1	2.635563374E0	2.721717425E0
2.863133962E1	-6.468839645E-1	2.666691780E0	3.540044546E0	4.479019904E0
2.864969602E1	8.142292500E-1	4.641465187E0	4.849570274E0	6.761989367E0
2.866803967E1	3.105871916E0	5.470205784E0	5.436692238E0	8.314277730E0
2.868637055E1	5.099794388E0	7.102480412E0	6.414480209E0	1.084429284E1
2.870472696E1	7.051340580E0	9.555128098E0	6.773330212E0	1.367113306E1
2.872307060E1	9.153635025E0	1.119500065E1	4.129030704E0	1.503881539E1
2.874140149E1	1.135260582E1	1.193482971E1	1.926773310E0	1.658415734E1
2.875975790E1	1.188353539E1	1.155772972E1	2.737171173E0	1.680153670E1
2.877810154E1	8.949467659E0	9.208180428E0	2.957784653E0	1.317695140E1
2.879643243E1	5.722354889E0	6.535601616E0	1.395606279E0	8.798133373E0
2.881478883E1	2.277877569E0	3.876735687E0	-1.850432634E0	4.862294391E0
2.883313248E1	-3.094955444E0	-2.092849731E0	-8.209959984E0	9.020100450E0
2.885146331E1	-1.326952171E1	-1.493912601E1	-1.410769939E1	2.445986253E1
2.886981977E1	-1.679902840E1	-2.380485916E1	-1.284784698E1	3.184251634E1
2.888816342E1	-9.326302528E0	-6.566998482E0	-2.458873272E0	1.166839516E1
2.890649430E1	3.690373421E0	1.994202137E0	-3.335192204E-1	4.207960696E0
2.892485071E1	7.875770569E0	6.441968441E0	-1.273338318E0	1.025417524E1
2.894319436E1	7.407883644E0	6.555294037E0	1.669387102E0	1.003172335E1
2.896152519E1	4.791892052E0	-1.486027718E0	7.554948807E0	9.069055038E0
2.897988165E1	-8.148791790E-1	-2.051834488E1	-3.535750866E0	2.083669933E1
2.899822529E1	-4.776700020E0	-1.079036522E1	1.333301163E1	1.780500052E1
2.901655618E1	1.731977582E0	3.169665813E0	3.364729404E0	4.936388526E0
2.903491258E1	4.855884552E0	7.056940556E0	5.359605789E0	1.010472162E1
2.905325623E1	6.939187050E0	6.556155205E0	5.429982662E0	1.098272278E1
2.907158712E1	7.974142075E0	3.415220261E0	3.597948074E0	9.391267305E0
2.908994352E1	4.135003567E0	-7.074241638E-1	2.175070763E0	4.725424454E0
2.910828717E1	-1.110930085E0	-1.084744453E0	1.154046416E0	1.934595388E0
2.912661805E1	-5.093696594E0	-9.007930756E-2	1.436256170E-1	5.096517202E0
2.914497446E1	-6.618041515E0	9.518918991E-1	-3.176548481E-1	6.693689288E0
2.916331811E1	-5.779555321E0	2.241148472E0	5.635197163E-1	6.224432556E0
2.918164899E1	-3.979017973E0	3.048254490E0	-3.054462671E-1	5.021726485E0
2.920000540E1	-2.115333080E0	2.642531395E0	-3.039602280E0	4.549372290E0
2.921834904E1	-8.063842058E-1	2.206928253E0	-3.645394325E0	4.337013672E0
2.923667993E1	3.756352961E-1	1.790014744E0	-2.544810295E0	3.133897589E0
2.925503633E1	1.208784342E0	6.473426819E-1	-5.587635040E-1	1.480685242E0
2.927337998E1	1.026554108E0	-9.004507065E-1	-9.823606014E-1	1.682158483E0
2.929171087E1	-7.655332088E-1	-2.332966805E0	-2.436526299E0	3.459109077E0
2.931006727E1	-3.626795769E0	-2.531775475E0	-2.913625717E0	5.296484629E0
2.932841092E1	-6.779441833E0	-2.478880882E0	-4.054709911E0	8.279272581E0
2.934674180E1	-9.630802155E0	-2.313967705E0	-1.511905432E0	1.001961350E1
2.936509826E1	-1.129298782E1	-2.602920532E0	-1.082219720E0	1.163950037E1
2.938344191E1	-1.082467651E1	-2.979427338E0	-1.441208243E0	1.131935025E1
2.940178555E1	-9.643184662E0	-2.844214439E0	-2.029848337E0	1.025674658E1
2.942012920E1	-8.563679695E0	-2.779288292E0	-2.846062183E0	9.442516787E0
2.943847285E1	-7.864637375E0	-2.860682487E0	3.010487556E-2	8.368807062E0
2.945680368E1	-6.710544586E0	-4.509934425E0	5.277218819E-1	8.102432200E0
2.947516014E1	-4.460893154E0	-4.654891014E0	3.479001522E-1	6.456671945E0
2.949350378E1	-7.045176029E-1	-5.649859428E0	-1.688959002E0	5.938841564E0
2.951183467E1	3.646833181E0	-1.081849575E1	-9.109765887E-1	1.145290884E1
2.953019107E1	6.670989513E0	-1.519433689E1	5.697798252E0	1.754522384E1
2.954853472E1	6.481518745E0	-1.403554916E1	3.131263971E0	1.577376111E1
2.956686560E1	4.013507843E0	-9.101893425E0	-1.845646054E-1	9.949209678E0
2.958522201E1	7.800443769E-1	-5.030457497E0	-7.191604376E-1	5.141124740E0
2.960356566E1	-1.017884970E0	-2.388504982E0	1.738721013E0	3.124771451E0
2.962189654E1	-1.454184055E0	7.488498688E-1	3.758879423E0	4.099341644E0
2.964025300E1	-8.835966587E-1	4.049024582E0	4.858086109E0	6.385635737E0
2.965859665E1	1.395319223E0	5.424909592E0	5.015110493E0	7.518503379E0
2.967692748E1	3.665898800E0	6.110677719E0	5.298285484E0	8.879809979E0
2.969528394E1	5.240541458E0	7.485435486E0	6.696468830E0	1.132862366E1
2.971362758E1	6.372866631E0	9.142820358E0	6.977364540E0	1.314869610E1
2.973195847E1	7.933732033E0	1.036500263E1	3.682521105E0	1.356238715E1
2.975031488E1	1.069661045E1	1.067384148E1	1.014620543E0	1.514522439E1
2.976865852E1	1.302834511E1	9.745620728E0	1.378323793E0	1.632833966E1
2.978698941E1	1.043620205E1	8.708334923E0	2.138343334E0	1.375943031E1
2.980534581E1	5.947084427E0	6.728432178E0	8.393617868E-1	9.019098678E0
2.982368946E1	1.429255724E0	3.933321953E0	-2.191880703E0	4.724207291E0
2.984202034E1	-4.079512596E0	-1.312294006E0	-7.501064777E0	8.638895264E0
2.986037675E1	-1.273605633E1	-1.346300316E1	-1.238994598E1	2.229283172E1
2.987872045E1	-1.641169357E1	-2.188068390E1	-1.493043137E1	3.116128679E1
2.989705128E1	-8.746974945E0	-5.876384735E0	-4.337746143E0	1.139550393E1
2.991540774E1	3.640325069E0	2.424187660E0	-9.876834154E-1	4.483767495E0
2.993375139E1	7.944519043E0	5.351372719E0	3.999600887E0	1.038023988E1
2.995208222E1	7.428119659E0	3.857130051E0	8.257802963E0	1.175779417E1
2.997043868E1	6.658662796E0	-4.830469131E0	-3.773009300E0	9.050238750E0
2.998878232E1	-1.543931246E0	-1.606311035E1	1.333161736E1	2.093177630E1
3.000711321E1	-1.215514183E0	-6.428918839E0	4.408291817E0	7.889328799E0
3.002546962E1	6.229114532E-1	1.861770153E0	7.032912254E0	7.301784820E0
3.004381326E1	2.593999147E0	3.095345497E0	5.255697250E0	6.628148226E0
3.006214415E1	5.576985836E0	2.947940826E0	3.482776642E0	7.205751818E0
3.008050060E1	4.932677269E0	2.659905434E0	2.126191139E0	5.993921147E0
3.009884425E1	1.098935962E0	9.196939468E-1	2.238620520E0	2.657991542E0
3.011717508E1	-2.261212826E0	-3.076648712E-2	2.183625698E0	3.143604811E0
3.013553154E1	-4.650037766E0	-6.728658676E-1	-5.200067163E-1	4.727156300E0
3.015387519E1	-4.842418194E0	-9.088430405E-1	-2.333854675E0	5.451778360E0
3.017220607E1	-2.448468924E0	1.669389725E0	-1.363566279E0	3.262081409E0
3.019056248E1	-1.936663985E-1	4.580248833E0	-7.992011309E-1	4.653483479E0
3.020890613E1	7.532223463E-1	4.438723564E0	-1.701823831E0	4.813087900E0
3.022723701E1	5.512819439E-2	3.512170792E0	-2.919633389E0	4.567564111E0
3.024559347E1	-7.391513586E-1	1.483625412E0	-3.161245346E0	3.569448309E0
3.026393712E1	-1.880567312E0	8.462438583E-1	-1.459457874E0	2.526396519E0
3.028228076E1	-2.552340746E0	6.050662994E-1	-5.401341915E-1	2.678113787E0
3.030062441E1	-2.605515480E0	-5.237216949E-1	-1.276735663E0	2.948397749E0
3.031896805E1	-3.085508347E0	-2.831085205E0	-2.982470989E0	5.141063936E0
3.033729894E1	-4.436772823E0	-4.661945343E0	-3.435458899E0	7.295276918E0
3.035565535E1	-7.210976601E0	-4.307444572E0	-2.135623932E0	8.666784401E0
3.037399899E1	-1.078586388E1	-3.632884979E0	-7.130153179E-1	1.140355662E1
3.039232988E1	-1.294911957E1	-3.069661140E0	-8.952696323E-1	1.333806676E1
3.041068628E1	-1.176626682E1	-3.081013680E0	-3.068667173E0	1.254409815E1
3.042902998E1	-7.841753960E0	-3.457733154E0	-4.341163635E0	9.607014387E0
3.044736081E1	-6.247369766E0	-3.914327621E0	-2.464827061E0	7.773478125E0
3.046571727E1	-5.831630707E0	-5.784246445E0	-7.126935720E-1	8.244595549E0
3.048406092E1	-4.513216019E0	-5.373969078E0	-2.293789387E-2	7.017776616E0
3.050239175E1	-2.695118189E0	-4.820138931E0	-1.025507092E0	5.616855541E0
3.052074821E1	1.284468412E0	-6.353331566E0	-5.273103714E-3	6.481875415E0
3.053909186E1	5.293097973E0	-1.006040859E1	6.391976357E0	1.304170499E1
3.055742274E1	5.354650021E0	-1.269627857E1	3.643855572E0	1.425291022E1
3.057577915E1	4.098859787E0	-1.169039154E1	-1.235244274E0	1.244956764E1
3.059412279E1	2.328925371E0	-6.806387901E0	-1.311815679E-1	7.194999531E0
3.061245368E1	9.233467579E-1	-3.010877609E0	2.351351976E0	3.930242910E0
3.063081008E1	6.848769188E-1	1.197738647E-1	2.375448227E0	2.475107362E0
3.064915373E1	5.619058609E-1	3.033255100E0	3.892457008E0	4.966648393E0
3.066748462E1	9.993355274E-1	4.969362259E0	5.995889664E0	7.851364570E0
3.068584102E1	2.233102083E0	6.586415291E0	5.335372448E0	8.765489744E0
3.070418467E1	3.817148447E0	7.757224083E0	5.035730362E0	1.000518506E1
