"Time (s)"	"Linear Acceleration x (m/s^2)"	"Linear Acceleration y (m/s^2)"	"Linear Acceleration z (m/s^2)"	"Absolute acceleration (m/s^2)"
9.686750003e-3	-1.473438410e-1	6.454875845e-1	1.933621591e0	2.043833870e0
1.966775000e-2	-2.413851951e-1	4.671475071e-1	1.676549925e0	1.757075199e0
2.964875000e-2	-4.487330901e-1	2.690140200e-1	1.212406132e0	1.320476641e0
3.962975000e-2	-5.839351147e-1	9.431734264e-2	7.544831926e-1	9.587079155e-1
4.961075000e-2	-5.626266915e-1	4.373366475e-2	4.344007605e-1	7.121554943e-1
5.959075000e-2	-3.652142391e-1	1.241644549e-1	3.068022358e-1	4.928751001e-1
6.957175000e-2	-1.287108113e-1	2.061237073e-1	3.160729963e-1	3.986923559e-1
7.955275000e-2	6.558171295e-2	1.910267812e-1	3.232527924e-1	3.811621177e-1
8.953375000e-2	1.426262344e-1	8.876482666e-2	1.741856307e-1	2.419960147e-1
9.951475000e-2	1.284298526e-1	1.602838755e-2	-8.586519241e-2	1.553189219e-1
1.094957500e-1	5.616857283e-2	-7.090567589e-2	-2.075901890e-1	2.264425093e-1
1.194767500e-1	2.250549451e-2	-2.530008352e-1	-2.644122612e-1	3.666466470e-1
1.294577500e-1	-2.812050261e-2	-3.870652109e-1	-3.240024054e-1	5.055569195e-1
1.394387500e-1	-1.630998945e-1	-4.051927489e-1	-2.561752886e-1	5.063679668e-1
1.494197500e-1	-3.000358379e-1	-5.850589496e-1	-1.531175280e-1	6.751003302e-1
1.594007500e-1	-3.755394718e-1	-7.823527765e-1	-1.095715588e-1	8.747066299e-1
1.693817500e-1	-3.868745917e-1	-8.723998976e-1	-2.041374081e-1	9.759229541e-1
1.793627500e-1	-2.256800124e-1	-7.615203166e-1	-2.615237367e-1	8.362053130e-1
1.893437500e-1	-5.383246399e-2	-5.487097335e-1	-1.868577164e-1	5.821478438e-1
1.993248750e-1	1.055492592e-1	-4.217345220e-1	-8.690541208e-2	4.433432122e-1
2.093058750e-1	2.310747997e-1	-3.890251976e-1	-8.903847635e-2	4.611550908e-1
2.192868750e-1	1.749605329e-1	-4.829858601e-1	-2.323712736e-1	5.638110836e-1
2.292678750e-1	1.023233503e-2	-5.890853423e-1	-4.772491568e-1	7.582169867e-1
2.392488750e-1	-2.192812581e-1	-6.471943867e-1	-6.832208365e-1	9.662999306e-1
2.492298750e-1	-4.208740311e-1	-7.330923235e-1	-6.925518233e-1	1.092788787e0
2.592108750e-1	-4.928868042e-1	-8.523632437e-1	-6.565557790e-1	1.183438208e0
2.691918750e-1	-5.217869599e-1	-8.611352366e-1	-6.839072996e-1	1.217187217e0
2.791728750e-1	-4.410633704e-1	-7.821925628e-1	-6.759860766e-1	1.123974767e0
2.891538750e-1	-2.625250724e-1	-7.005180699e-1	-5.404055178e-1	9.228667854e-1
2.991348750e-1	-1.045200031e-1	-6.519189370e-1	-3.838749701e-1	7.637294836e-1
3.091158750e-1	2.669502452e-2	-6.228804946e-1	-2.306650561e-1	6.647549195e-1
3.190968750e-1	1.022634163e-1	-6.088693964e-1	-1.426276231e-1	6.336579417e-1
3.290778750e-1	7.198974967e-2	-6.030438155e-1	-9.885068893e-2	6.153176628e-1
3.390588750e-1	3.189729229e-3	-5.316908276e-1	-1.176284373e-2	5.318304946e-1
3.490398750e-1	1.909605615e-2	-3.525923663e-1	1.287755692e-1	3.758579298e-1
3.590208750e-1	-2.215305358e-2	-1.816279668e-1	1.291018438e-1	2.239347275e-1
3.690018750e-1	-1.246300395e-1	1.857449913e-1	2.046700895e-1	3.031892051e-1
3.789828750e-1	-1.837190773e-1	7.313416672e-1	5.072494662e-1	9.087988526e-1
3.889628750e-1	-1.883369158e-1	1.232123528e0	9.610834479e-1	1.573937920e0
3.989438750e-1	-1.115903831e-1	1.749644213e0	1.554178811e0	2.342899712e0
4.089248750e-1	-1.479631343e-1	2.349774946e0	2.056874465e0	3.126350580e0
4.189058750e-1	-2.483432356e-1	2.903148419e0	2.285259107e0	3.703019618e0
4.288868750e-1	-2.330518164e-1	3.338778264e0	2.274547008e0	4.046642749e0
4.388678750e-1	-1.189192101e-1	3.617001649e0	2.161585819e0	4.215364273e0
4.488488750e-1	-1.655221767e-1	3.713652030e0	2.290864833e0	4.366539897e0
4.588298750e-1	-3.130477931e-1	3.642641689e0	2.766079159e0	4.584542650e0
4.688108750e-1	-5.200107220e-1	3.451738869e0	3.450923767e0	4.908542270e0
4.787918750e-1	-7.842067824e-1	3.175371391e0	3.992710397e0	5.161366104e0
4.887728750e-1	-8.921795663e-1	2.938452737e0	3.993124380e0	5.037413144e0
4.987538750e-1	-8.170149247e-1	2.918664005e0	3.493337715e0	4.624880686e0
5.087348750e-1	-6.046154740e-1	3.131645912e0	2.938221772e0	4.336578510e0
5.187158750e-1	-2.857791567e-1	3.412225724e0	2.749667194e0	4.391540026e0
5.286968750e-1	-9.003813095e-2	3.484020177e0	2.823499986e0	4.485382440e0
5.386778750e-1	-1.898608464e-1	3.234729985e0	2.935861251e0	4.372505747e0
5.486588750e-1	-5.103776535e-1	2.819626790e0	2.911487133e0	4.085038300e0
5.586398750e-1	-9.681915426e-1	2.145764422e0	2.649504390e0	3.544230993e0
5.686208750e-1	-1.554308473e0	1.309439507e0	2.254201621e0	3.035116406e0
5.786018750e-1	-2.086982802e0	7.428086418e-1	2.005652272e0	2.988294318e0
5.885828750e-1	-2.076213693e0	2.949703950e-1	1.764773884e0	2.740820624e0
5.985638750e-1	-1.431467097e0	-7.983203530e-2	1.218300710e0	1.881416441e0
6.085448750e-1	-4.525983189e-1	-1.984708714e-1	1.332346559e-1	5.118470461e-1
6.185258750e-1	4.992609271e-1	-1.477532923e-1	-1.430660473e0	1.522459161e0
6.285068750e-1	1.448874696e0	-5.375813127e-2	-3.038065903e0	3.366299490e0
6.384878750e-1	2.203013341e0	-1.019286633e-2	-4.214808113e0	4.755836320e0
6.484688750e-1	2.395513913e0	-2.611711496e-1	-4.534880605e0	5.135351923e0
6.584498750e-1	2.094674960e0	-8.981399256e-1	-3.875912849e0	4.496333943e0
6.684308750e-1	1.450934378e0	-1.587802055e0	-2.319957070e0	3.163625569e0
6.784118750e-1	6.582107603e-1	-2.391838061e0	-4.332564604e-1	2.518301387e0
6.883928750e-1	-1.137803847e-1	-3.225284978e0	1.113465396e0	3.413973396e0
6.983738750e-1	-7.908290465e-1	-3.930236406e0	1.761986516e0	4.379128369e0
7.083548750e-1	-1.185743267e0	-4.446064907e0	1.313302762e0	4.785211009e0
7.183348750e-1	-1.219614507e0	-4.687550236e0	9.390511394e-2	4.844523189e0
7.283158750e-1	-8.492582260e-1	-4.775190643e0	-1.570480263e0	5.098048006e0
7.382968750e-1	-2.957805267e-1	-4.716003957e0	-3.251021497e0	5.735618556e0
7.482778750e-1	1.518839116e-1	-4.640613467e0	-4.611227115e0	6.543835081e0
7.582588750e-1	5.245176462e-1	-4.668992928e0	-5.488610010e0	7.224918931e0
7.682398750e-1	7.599846916e-1	-4.690522960e0	-5.881422449e0	7.561065559e0
7.782208750e-1	8.233637584e-1	-4.838574461e0	-5.990713341e0	7.744570810e0
7.882018750e-1	8.262449739e-1	-5.032588584e0	-5.987662264e0	7.865222693e0
7.981828750e-1	8.015072317e-1	-5.076567832e0	-5.797348843e0	7.747464644e0
8.081638750e-1	1.062724574e0	-5.622773203e0	-5.513659481e0	7.946408176e0
8.181448750e-1	6.843573891e-1	-5.476364186e0	-5.124067104e0	7.530934432e0
8.281258750e-1	7.191625748e-1	-5.520383195e0	-4.496399494e0	7.156076707e0
8.381068750e-1	8.513891707e-1	-5.545699300e0	-3.890961828e0	6.827827487e0
8.480878750e-1	6.395972456e-1	-5.460767908e0	-3.614655746e0	6.579878945e0
8.580688750e-1	2.893689451e-1	-5.311258112e0	-3.700201680e0	6.479559367e0
8.680498750e-1	-1.080066977e-1	-4.911400362e0	-3.903234549e0	6.274452877e0
8.780308750e-1	-4.467238041e-1	-4.360210825e0	-3.871916277e0	5.848310547e0
8.880118750e-1	-8.840981296e-1	-3.742975232e0	-3.552583458e0	5.235679738e0
8.979928750e-1	-1.292842770e0	-2.977220947e0	-3.129084247e0	4.508487021e0
9.079738750e-1	-1.562623944e0	-1.977720122e0	-2.549748552e0	3.585301682e0
9.179548750e-1	-1.643562273e0	-8.187984717e-1	-1.617223490e0	2.446863236e0
9.279358750e-1	-1.611136538e0	5.033055192e-1	-3.339719081e-1	1.720643666e0
9.379168750e-1	-1.178357503e0	1.897673494e0	1.105763444e0	2.492469436e0
9.478978750e-1	-1.111273933e-1	3.280205535e0	2.518718548e0	4.137153704e0
9.578788750e-1	1.202876194e0	4.713086196e0	3.864856349e0	6.212665067e0
9.678598750e-1	2.377568078e0	6.039672078e0	4.936777278e0	8.154890475e0
9.778408750e-1	2.867674238e0	7.064337564e0	5.680195785e0	9.507525699e0
9.878218750e-1	2.596028387e0	7.636838449e0	5.909178597e0	9.998952773e0
9.978028750e-1	1.916701503e0	8.009489688e0	5.657484030e0	9.991636266e0
1.007783875e0	9.161265457e-1	8.437204158e0	5.516890653e0	1.012234085e1
1.017764875e0	-8.378826141e-2	8.776719811e0	5.705274493e0	1.046842816e1
1.027745875e0	-6.441729111e-1	8.996084538e0	5.874871813e0	1.076376396e1
1.037726875e0	-1.128252712e0	9.264310938e0	5.751934689e0	1.096289943e1
1.047706875e0	-1.606641199e0	9.405797185e0	5.547116665e0	1.103724694e1
1.057687875e0	-1.758533004e0	9.325300321e0	5.311582047e0	1.087504337e1
1.067668875e0	-2.013074873e0	9.033162317e0	5.143475182e0	1.058800401e1
1.077649875e0	-2.214292328e0	8.556969752e0	4.996917645e0	1.015352194e1
1.087630875e0	-2.378624523e0	7.947582877e0	4.809640684e0	9.589294641e0
1.097611875e0	-2.699189643e0	7.298894527e0	4.572268286e0	9.025803196e0
1.107592875e0	-2.874411693e0	6.292245482e0	4.139630461e0	8.061708016e0
1.117573875e0	-2.587747267e0	5.224683652e0	3.448415312e0	6.773870632e0
1.127554875e0	-1.971521197e0	4.142412567e0	2.533027854e0	5.240487364e0
1.137535875e0	-1.328544407e0	3.071903155e0	1.397427823e0	3.626902777e0
1.147516875e0	-9.165772198e-1	1.954429493e0	1.781401026e-1	2.166019930e0
1.157497875e0	-9.209214087e-1	6.297468799e-1	-8.635881436e-1	1.410837289e0
1.167478875e0	-9.403461514e-1	-8.229488254e-1	-1.877743844e0	2.255530447e0
1.177459875e0	-7.993520942e-1	-2.196115381e0	-2.909509605e0	3.731907378e0
1.187440875e0	-7.145807697e-1	-3.393759633e0	-3.676049171e0	5.053866602e0
1.197421500e0	-6.833844124e-1	-4.446107007e0	-4.142483903e0	6.115149602e0
1.207402500e0	-7.451275013e-1	-5.089308915e0	-4.199464434e0	6.640164287e0
1.217383500e0	-6.327641163e-1	-5.431999606e0	-3.494615332e0	6.489941947e0
1.227364500e0	-2.038003710e-1	-5.395284355e0	-2.432518895e0	5.921805133e0
1.237345500e0	3.950988102e-1	-5.423458579e0	-1.635370908e0	5.678419149e0
1.247326500e0	7.542503272e-1	-5.584353488e0	-1.658738136e0	5.874122031e0
1.257307500e0	1.046969252e0	-5.835285578e0	-2.538151184e0	6.448946723e0
1.267288500e0	1.133979475e0	-6.037585791e0	-3.377420758e0	7.010372502e0
1.277269500e0	1.335457277e0	-6.040908764e0	-3.598333243e0	7.157096266e0
1.287250500e0	1.838509027e0	-5.789899490e0	-3.560440947e0	7.041291876e0
1.297231500e0	2.172221173e0	-5.336564861e0	-3.570779994e0	6.778490916e0
1.307212500e0	2.274299379e0	-5.150353847e0	-3.752907897e0	6.766306237e0
1.317193500e0	2.027430519e0	-5.174343803e0	-3.941935515e0	6.813454623e0
1.327174500e0	1.761505583e0	-5.377281362e0	-4.119416052e0	6.999117471e0
1.337155500e0	1.498078431e0	-5.430237256e0	-4.123196862e0	6.980864416e0
1.347136500e0	1.210250995e0	-5.482020198e0	-3.927764204e0	6.851611822e0
1.357117500e0	1.142210893e0	-5.695193893e0	-3.886728444e0	6.989029775e0
1.367097500e0	8.748625986e-1	-5.720689507e0	-4.086092770e0	7.084336746e0
1.377078500e0	7.135218389e-1	-5.724763847e0	-4.201250174e0	7.136703549e0
1.387059500e0	5.552042725e-1	-5.766384913e0	-4.200171947e0	7.155479798e0
1.397040500e0	3.249662458e-1	-5.774203225e0	-4.084754927e0	7.080413036e0
1.407021500e0	-7.605053131e-3	-5.797016721e0	-3.777495439e0	6.919171374e0
1.417002500e0	-3.008677322e-1	-5.921942484e0	-3.416714047e0	6.843526799e0
1.426983500e0	-4.660796959e-1	-5.822261490e0	-3.063298978e0	6.595434767e0
1.436964500e0	-6.506269947e-1	-5.495401551e0	-2.674646248e0	6.146257905e0
1.446945500e0	-8.253216255e-1	-5.146070176e0	-2.516979586e0	5.787778527e0
1.456926500e0	-1.008907825e0	-4.682651439e0	-2.582644402e0	5.441982323e0
1.466907500e0	-1.257802745e0	-4.112054408e0	-2.658471680e0	5.055544567e0
1.476888500e0	-1.318688048e0	-3.809176238e0	-2.819971191e0	4.919451118e0
1.486869500e0	-1.401056897e0	-3.426402884e0	-3.248991344e0	4.925357033e0
1.496850500e0	-1.390227562e0	-2.559376577e0	-3.536358604e0	4.581372427e0
1.506831500e0	-9.349059020e-1	-1.364170614e0	-3.294342349e0	3.686150027e0
1.516812500e0	-5.061279337e-1	2.266146898e-1	-2.466882396e0	2.528443881e0
1.526793500e0	-3.197671209e-1	1.972656434e0	-9.042303854e-1	2.193457774e0
1.536774500e0	-3.760672561e-1	3.843203525e0	1.313888653e0	4.078963509e0
1.546755500e0	-3.704649657e-3	5.930477080e0	3.256893856e0	6.765938938e0
1.556736500e0	7.302646831e-1	7.984377066e0	4.306759672e0	9.101194566e0
1.566717500e0	1.215514366e0	1.021934486e1	4.945076231e0	1.141780467e1
1.576698500e0	1.938523605e0	1.263534654e1	5.852683384e0	1.405929439e1
1.586679500e0	2.470536614e0	1.468007809e1	7.609104520e0	1.671845434e1
1.596660500e0	1.877708176e0	1.617530936e1	1.100366814e1	1.965317108e1
1.606641500e0	3.984839460e-1	1.637958769e1	1.552492825e1	2.257151035e1
1.616622500e0	-1.379457721e0	1.538106569e1	1.890428209e1	2.441007921e1
1.626603500e0	-3.111029799e0	1.416632535e1	1.963033554e1	2.440723978e1
1.636584500e0	-4.152307810e0	1.307025542e1	1.782727409e1	2.249188605e1
1.646565500e0	-4.190918436e0	1.214231633e1	1.404096105e1	1.903019260e1
1.656546500e0	-3.986393065e0	1.173646577e1	9.832646266e0	1.582140610e1
1.666527500e0	-3.488011194e0	1.113197126e1	6.269153658e0	1.324346230e1
1.676507500e0	-2.953547617e0	1.045473388e1	3.468177146e0	1.140408509e1
1.686488500e0	-2.335881815e0	9.852057853e0	1.864199939e0	1.029536931e1
1.696469500e0	-1.686129126e0	8.893301012e0	1.804803337e0	9.229905168e0
1.706450500e0	-1.118042450e0	7.343166136e0	2.451443993e0	7.821872248e0
1.716431500e0	-6.676393224e-1	5.404866187e0	2.930442637e0	6.184320077e0
1.726412500e0	-2.233949936e-1	3.475256955e0	2.805304036e0	4.471805783e0
1.736393500e0	4.312445797e-2	1.624692723e0	1.885675008e0	2.489428930e0
1.746374500e0	-3.359415427e-2	-1.189048845e-1	8.277879810e-1	8.369587088e-1
1.756355500e0	-6.239651531e-2	-1.801938787e0	-2.666178310e-1	1.822624971e0
1.766336500e0	-1.213911206e-1	-3.223406852e0	-1.534207061e0	3.571957285e0
1.776317500e0	-3.213995904e-1	-4.351601384e0	-2.732688634e0	5.148525952e0
1.786298500e0	-5.438003381e-1	-5.281726749e0	-3.630578883e0	6.432220401e0
1.796279500e0	-4.729896064e-1	-5.987065848e0	-3.922730336e0	7.173317916e0
1.806260500e0	6.681759506e-3	-6.377406085e0	-3.427436671e0	7.240074250e0
1.816241500e0	6.920934746e-1	-6.667027447e0	-2.999884754e0	7.343538445e0
1.826222500e0	1.265107379e0	-7.089618586e0	-3.373524758e0	7.952600686e0
1.836203500e0	1.542329136e0	-7.572602692e0	-4.497511050e0	8.941515326e0
1.846184500e0	1.772277469e0	-7.923961295e0	-5.672420742e0	9.904871888e0
1.856165500e0	2.117892792e0	-8.077382294e0	-6.136094418e0	1.036249146e1
1.866146500e0	2.370683420e0	-8.173066131e0	-5.939035649e0	1.037744161e1
1.876127500e0	2.553819383e0	-8.147462928e0	-5.462616212e0	1.013623803e1
1.886108500e0	2.422647040e0	-7.900369534e0	-4.716776374e0	9.514885014e0
1.896089500e0	2.147789313e0	-7.888492670e0	-4.079494772e0	9.136935653e0
1.906070500e0	1.616118366e0	-7.977046997e0	-3.868327841e0	9.011607939e0
1.916051500e0	1.091929516e0	-8.039608111e0	-4.059825908e0	9.072474583e0
1.926032500e0	7.715067031e-1	-7.915236080e0	-4.205942565e0	8.996451392e0
1.936013500e0	8.070433024e-1	-7.733611622e0	-4.255036372e0	8.863712661e0
1.945994500e0	9.255258717e-1	-7.476106092e0	-4.369295644e0	8.708587994e0
1.955975500e0	1.040768060e0	-7.225037177e0	-4.461947699e0	8.555310493e0
1.965956500e0	1.092864413e0	-7.094972296e0	-4.545993823e0	8.497002080e0
1.975937500e0	9.959617238e-1	-7.103150797e0	-4.680341789e0	8.564595160e0
1.985917500e0	7.382016937e-1	-7.228353133e0	-4.785667684e0	8.700381942e0
1.995898500e0	4.492547348e-1	-7.403918706e0	-4.752484735e0	8.809424112e0
2.005879500e0	2.124480557e-1	-7.465495149e0	-4.529615772e0	8.734767944e0
2.015860500e0	1.960176721e-2	-7.541600170e0	-4.263890226e0	8.663537222e0
2.025841500e0	-1.814530619e-1	-7.410433674e0	-4.098203523e0	8.470107707e0
2.035822500e0	-2.437759023e-1	-7.047253754e0	-3.888728777e0	8.052665625e0
2.045803500e0	-2.144434181e-1	-6.734971508e0	-3.621300521e0	7.649813374e0
2.055784500e0	-4.141594541e-1	-6.407243257e0	-3.495897042e0	7.310649104e0
2.065765500e0	-7.441354481e-1	-6.010492133e0	-3.596797180e0	7.043912492e0
2.075746500e0	-1.142198395e0	-5.529411880e0	-3.685429859e0	6.742507409e0
2.085727500e0	-1.378817159e0	-4.850573532e0	-3.688004973e0	6.247445960e0
2.095708500e0	-1.407305817e0	-3.787639773e0	-3.548387496e0	5.377525318e0
2.105689500e0	-1.208995963e0	-2.673339395e0	-3.278409855e0	4.399589292e0
2.115670500e0	-1.166680175e0	-1.425841783e0	-2.837156743e0	3.382842858e0
2.125651500e0	-7.382008897e-1	9.063184261e-3	-2.289543947e0	2.405625528e0
2.135632500e0	1.925601404e-2	1.735267664e0	-1.844160069e0	2.532281781e0
2.145613500e0	7.515875052e-1	3.479664001e0	-1.436889512e0	3.838957777e0
2.155594500e0	9.848104258e-1	5.070251085e0	-6.526322973e-1	5.206075927e0
2.165575500e0	6.374921749e-1	6.312320727e0	6.444023412e-1	6.377071711e0
2.175556500e0	2.821402882e-1	7.274035674e0	1.947902246e0	7.535616849e0
2.185537500e0	1.912756168e-1	8.203681567e0	2.795395929e0	8.668980102e0
2.195518500e0	3.621262880e-1	9.430243224e0	3.373011373e0	1.002186751e1
2.205499625e0	7.547974804e-1	1.112001487e1	4.353887061e0	1.196581725e1
2.215480625e0	1.439555842e0	1.279775646e1	5.690595058e0	1.407969330e1
2.225461625e0	1.844698597e0	1.420058536e1	7.210579351e0	1.603284104e1
2.235442625e0	1.615340102e0	1.523000404e1	9.150246379e0	1.784066578e1
2.245423625e0	1.016238333e0	1.485061447e1	1.066969858e1	1.831436481e1
2.255404625e0	1.299243278e-1	1.374429204e1	1.043613389e1	1.725790643e1
2.265385625e0	-8.389782362e-1	1.285440428e1	9.017573640e0	1.572438324e1
2.275366625e0	-1.848696924e0	1.190542223e1	7.399559607e0	1.413896182e1
2.285347625e0	-3.001191315e0	1.131348287e1	6.221642107e0	1.325559785e1
2.295328625e0	-3.729573706e0	1.093592347e1	5.590576680e0	1.283583616e1
2.305308625e0	-3.800700699e0	1.047480386e1	4.988409362e0	1.220864733e1
2.315289625e0	-3.115673073e0	9.877867463e0	4.077086889e0	1.113114198e1
2.325270625e0	-1.279427941e0	9.151580129e0	2.979732326e0	9.709127635e0
2.335251625e0	1.265054170e0	8.770067434e0	2.632847427e0	9.243718430e0
2.345232625e0	3.151514751e0	8.269950986e0	3.116171256e0	9.382678606e0
2.355213625e0	4.025827273e0	6.948069189e0	3.523454384e0	8.769132311e0
2.365194625e0	4.315631652e0	4.866982573e0	2.907974710e0	7.125202653e0
2.375175625e0	4.143658316e0	2.941811378e0	1.320091964e0	5.250409624e0
2.385156625e0	3.735671183e0	1.386347934e0	-7.202436519e-1	4.049191363e0
2.395137625e0	2.872711322e0	-1.335679471e-2	-2.196458028e0	3.616224082e0
2.405118625e0	2.199757027e0	-1.313869942e0	-2.655943928e0	3.690423194e0
2.415099625e0	1.375381189e0	-2.569420924e0	-2.114661913e0	3.600748853e0
2.425080625e0	2.144540893e-1	-4.120461534e0	-1.138253497e0	4.280165281e0
2.435061625e0	-1.127401796e0	-5.341759527e0	-5.539710581e-1	5.487468778e0
2.445042625e0	-2.301597397e0	-6.313715288e0	-3.793001086e-1	6.730840950e0
2.455023625e0	-2.958751931e0	-7.207793738e0	-4.538187790e-1	7.804643172e0
2.465004625e0	-3.012829905e0	-7.741819943e0	-9.966538149e-1	8.366973102e0
2.474985625e0	-2.843211242e0	-8.009198497e0	-2.013976952e0	8.734255200e0
2.484966625e0	-2.651658796e0	-8.135220028e0	-3.272243382e0	9.160822890e0
2.494947625e0	-2.300776448e0	-8.041685042e0	-4.516872350e0	9.506019483e0
2.504928625e0	-1.913283221e0	-7.947976395e0	-5.342907336e0	9.766147667e0
2.514909625e0	-1.370749609e0	-7.892973976e0	-5.730951955e0	9.849964619e0
2.524890625e0	-1.048231958e0	-7.763657539e0	-5.825496170e0	9.762662252e0
2.534871625e0	-8.633985476e-1	-7.698065228e0	-5.635520718e0	9.579392417e0
2.544852625e0	-7.437082359e-1	-7.541713021e0	-5.222419610e0	9.203488676e0
2.554833625e0	-6.599701144e-1	-7.492175995e0	-4.712507322e0	8.875583752e0
2.564814625e0	-5.176094167e-1	-7.522437090e0	-4.373412083e0	8.716748966e0
2.574795625e0	-5.253963730e-1	-7.640185980e0	-4.226204921e0	8.746958968e0
2.584776625e0	-6.223876474e-1	-7.751661977e0	-4.151810796e0	8.815506943e0
2.594757625e0	-7.390008619e-1	-7.813315018e0	-3.950405207e0	8.786336845e0
2.604738625e0	-7.611076494e-1	-7.817854797e0	-3.589475881e0	8.636114611e0
2.614718625e0	-6.745717813e-1	-7.796837565e0	-3.263641543e0	8.479214540e0
2.624699625e0	-6.069481476e-1	-7.741038170e0	-3.026267976e0	8.333688012e0
2.634680625e0	-5.547192094e-1	-7.526483363e0	-2.655096667e0	8.000325214e0
2.644661625e0	-3.427091832e-1	-7.369789678e0	-2.163289112e0	7.688372342e0
2.654642625e0	-3.090172845e-2	-7.261210392e0	-1.873451988e0	7.499063516e0
2.664623625e0	2.566321754e-1	-7.051154432e0	-1.857444066e0	7.296213905e0
2.674604625e0	3.120536933e-1	-6.843050272e0	-1.976015074e0	7.129470535e0
2.684585625e0	1.857443335e-1	-6.756509142e0	-2.093606382e0	7.075881883e0
2.694566625e0	-7.492183596e-3	-6.656633436e0	-2.262442102e0	7.030609440e0
2.704547625e0	-1.503180273e-1	-6.240736774e0	-2.189619125e0	6.615423109e0
2.714528625e0	-1.920660324e-1	-5.490759446e0	-1.858104216e0	5.799817233e0
2.724509625e0	-2.367194825e-1	-4.352877831e0	-1.484713889e0	4.605209752e0
2.734490625e0	-4.146358560e-1	-2.842742003e0	-8.488139838e-1	2.995595128e0
2.744471625e0	-4.483329213e-1	-1.130161536e0	2.322733328e-1	1.237828100e0
2.754452625e0	-2.432527958e-1	8.868547994e-1	1.179620209e0	1.495722968e0
2.764433625e0	2.164192105e-1	3.087978905e0	1.524605640e0	3.450633761e0
2.774414625e0	6.256352641e-1	5.257825670e0	1.635193445e0	5.541661111e0
2.784395625e0	5.593790017e-1	7.318865107e0	2.338627229e0	7.703756788e0
2.794376625e0	5.965858582e-1	9.106859454e0	3.511894439e0	9.778763028e0
2.804357625e0	7.893658539e-1	1.061583636e1	4.321466589e0	1.148887086e1
2.814338625e0	8.109981398e-1	1.200523888e1	4.465196412e0	1.283438575e1
2.824319625e0	9.775283034e-1	1.315934009e1	4.365842278e0	1.389907810e1
2.834300625e0	7.519947638e-1	1.401435388e1	4.533394535e0	1.474853473e1
2.844281625e0	1.605665883e-1	1.466431867e1	5.426528367e0	1.563698289e1
2.854262625e0	-3.278867473e-1	1.529033328e1	7.223927375e0	1.691410441e1
2.864243625e0	-5.058726296e-1	1.533574977e1	9.117183298e0	1.784836573e1
2.874224625e0	-7.109780078e-1	1.473534129e1	1.012727694e1	1.789406357e1
2.884205625e0	-1.140354987e0	1.394221093e1	1.026508412e1	1.735101170e1
2.894186625e0	-2.326746564e0	1.285582165e1	9.896618314e0	1.638990402e1
2.904166625e0	-3.784490463e0	1.142234165e1	9.031321614e0	1.504516623e1
2.914147625e0	-4.648274781e0	1.030539833e1	7.713890133e0	1.368618991e1
2.924128625e0	-4.194286140e0	9.356374764e0	6.181724335e0	1.197278166e1
2.934109625e0	-2.721256742e0	8.538794267e0	4.359776376e0	9.966137459e0
2.944090625e0	-8.075403889e-1	7.886174834e0	2.307910636e0	8.256532353e0
2.954071625e0	8.792128540e-1	6.914861682e0	5.560538363e-1	6.992676397e0
2.964052625e0	1.529332530e0	5.140795403e0	-7.038018662e-1	5.409433651e0
2.974033625e0	1.100846155e0	2.968549526e0	-1.344894683e0	3.439896837e0
2.984014625e0	2.941014256e-1	7.847290850e-1	-1.565637599e0	1.775814314e0
2.993995625e0	-3.459500755e-1	-1.095910885e0	-1.639987870e0	2.002563941e0
3.003976625e0	-7.227582470e-1	-2.649552922e0	-1.529009471e0	3.143307196e0
3.013957625e0	-9.737003506e-1	-4.066968867e0	-1.107051001e0	4.325955392e0
3.023938625e0	-1.074121821e0	-5.146229221e0	-6.947655791e-1	5.302840002e0
3.033919625e0	-1.272246537e0	-6.135804396e0	-7.461491561e-1	6.310582018e0
3.043900625e0	-1.424649535e0	-7.211169920e0	-1.339929228e0	7.471680417e0
3.053881625e0	-1.075894404e0	-8.173731544e0	-2.200323038e0	8.532810650e0
3.063862625e0	-4.345377316e-1	-8.552393721e0	-3.119434587e0	9.113897824e0
3.073843625e0	4.760160887e-1	-8.507018743e0	-4.050386748e0	9.434065509e0
3.083824625e0	1.606218299e0	-8.042738126e0	-4.807761388e0	9.506847183e0
3.093805625e0	2.515164610e0	-7.445358508e0	-5.539733970e0	9.614991877e0
3.103786625e0	2.962688569e0	-6.867064787e0	-6.034513080e0	9.609862145e0
3.113767625e0	3.164869499e0	-7.257651776e0	-6.398565989e0	1.017995849e1
3.123748625e0	2.626088338e0	-7.357981226e0	-6.689185470e0	1.028500996e1
3.133729625e0	1.705513669e0	-7.411317188e0	-6.260707355e0	9.850525667e0
3.143710625e0	1.296898691e0	-7.405682811e0	-5.238569035e0	9.163443111e0
3.153691625e0	8.642786998e-1	-7.354747131e0	-4.094086499e0	8.461727205e0
3.163672625e0	5.393518496e-1	-7.382346573e0	-3.391166977e0	8.141864333e0
3.173653625e0	1.584675476e-1	-7.344280615e0	-3.165504214e0	7.998999103e0
3.183634625e0	-1.056140719e-1	-7.151638248e0	-3.197128295e0	7.834456797e0
3.193615625e0	-2.095238267e-1	-6.932785152e0	-3.312275174e0	7.686258975e0
3.203596792e0	-3.121636941e-1	-6.764744360e0	-3.405256428e0	7.579906581e0
3.213577792e0	-5.082046819e-1	-6.674387922e0	-3.452270966e0	7.531527133e0
3.223557792e0	-7.788567994e-1	-6.692774491e0	-3.330371722e0	7.516064403e0
3.233538792e0	-9.672622007e-1	-6.712024695e0	-3.093976979e0	7.453828896e0
3.243519792e0	-1.046320065e0	-6.674554567e0	-2.815493394e0	7.319253200e0
3.253500792e0	-1.027510376e0	-6.591880785e0	-2.571855705e0	7.150042771e0
3.263481792e0	-9.503152156e-1	-6.407860138e0	-2.353755730e0	6.892309961e0
3.273462792e0	-8.244325563e-1	-6.068985924e0	-2.118999962e0	6.480928948e0
3.283443792e0	-8.292682037e-1	-5.666536689e0	-1.718250220e0	5.979105921e0
3.293424792e0	-9.167947362e-1	-5.400519952e0	-1.243606875e0	5.617177796e0
3.303405792e0	-1.027227809e0	-4.991262218e0	-8.314103311e-1	5.163248846e0
3.313386792e0	-1.194782844e0	-4.380107730e0	-5.581407076e-1	4.574316432e0
3.323367792e0	-1.134919196e0	-3.955125080e0	-4.913128799e-1	4.143964807e0
3.333348792e0	-1.153928128e0	-3.068625206e0	-5.702964842e-1	3.327649150e0
3.343329792e0	-1.111011466e0	-1.772613246e0	-7.718196023e-1	2.229845218e0
3.353310792e0	-7.414149579e-1	-3.175897640e-1	-1.169382319e0	1.420568339e0
3.363291792e0	-7.482405955e-2	1.774729938e0	-1.271282916e0	2.184359230e0
3.373272792e0	6.937917253e-1	4.294616175e0	-7.230301425e-1	4.409971387e0
3.383253792e0	1.153686931e0	6.952168087e0	4.843927002e-1	7.063870818e0
3.393234792e0	1.302413346e0	9.665467354e0	2.148651778e0	9.986703368e0
3.403215792e0	1.740799861e0	1.160649971e1	3.488999081e0	1.224395092e1
3.413196792e0	1.839814857e0	1.306567588e1	4.373591008e0	1.390054327e1
3.423177792e0	1.327077340e0	1.439975088e1	5.449205039e0	1.545340723e1
3.433158792e0	5.345485812e-1	1.538191003e1	6.953466169e0	1.688903757e1
3.443139792e0	-3.310673768e-1	1.577959554e1	8.872990708e0	1.810622006e1
3.453120792e0	-1.020359450e0	1.591662387e1	1.033315389e1	1.900405531e1
3.463101792e0	-1.296776776e0	1.602701228e1	1.067908687e1	1.930258141e1
3.473082792e0	-1.088927921e0	1.602104578e1	9.974566376e0	1.890374689e1
3.483063792e0	-7.245348503e-1	1.596865005e1	8.890819454e0	1.829123850e1
3.493044792e0	-1.106763610e0	1.542776857e1	8.087762271e0	1.745430799e1
3.503024792e0	-2.263734922e0	1.413855458e1	7.764266819e0	1.628824916e1
3.513005792e0	-3.458420482e0	1.267294881e1	7.868908006e0	1.531287096e1
3.522986792e0	-3.980237117e0	1.102322240e1	7.656638290e0	1.399920818e1
3.532967792e0	-3.777403053e0	9.183919909e0	6.438605382e0	1.183506645e1
3.542948792e0	-3.274378200e0	7.834407679e0	4.274681847e0	9.506439985e0
3.552929792e0	-2.263540210e0	6.600911225e0	1.690333566e0	7.180032789e0
3.562910792e0	-1.056341754e0	5.022883376e0	-7.261809146e-1	5.183874423e0
3.572891792e0	-2.790685266e-1	3.268272538e0	-2.275181724e0	3.991984030e0
3.582872792e0	1.491588168e-2	1.461483486e0	-2.653810279e0	3.029664249e0
3.592853792e0	-1.857955697e-1	-3.525496817e-1	-2.342075332e0	2.375737388e0
3.602834792e0	-3.390550388e-1	-2.151504634e0	-1.829049987e0	2.844179031e0
3.612815792e0	-5.353056494e-1	-3.722653819e0	-1.536215580e0	4.062593002e0
3.622796792e0	-7.695486168e-1	-5.187348595e0	-1.372777131e0	5.420821670e0
3.632777792e0	-9.138445236e-1	-6.189118139e0	-9.566728932e-1	6.328942896e0
3.642758792e0	-7.775175677e-1	-7.058391531e0	-5.656058478e-1	7.123575966e0
3.652739792e0	-4.753183331e-1	-7.832204449e0	-8.913787901e-1	7.897082385e0
3.662720792e0	-3.453115230e-1	-8.449821864e0	-2.124423839e0	8.719627643e0
3.672701792e0	-2.286141087e-1	-8.998430441e0	-3.822951694e0	9.779518110e0
3.682682792e0	5.507920001e-2	-9.188290703e0	-5.327260187e0	1.062108379e1
3.692663792e0	3.845875264e-1	-9.178135843e0	-6.106026281e0	1.103039628e1
3.702644792e0	8.033007921e-1	-9.240917398e0	-6.319799316e0	1.122406833e1
3.712625792e0	1.068105767e0	-9.340230601e0	-6.372798479e0	1.135752253e1
3.722606792e0	9.433201915e-1	-9.351311660e0	-6.150113118e0	1.123213133e1
3.732587792e0	1.044868786e0	-9.512084947e0	-5.708923740e0	1.114285965e1
3.742568792e0	8.910013524e-1	-9.362692680e0	-5.300924327e0	1.079600372e1
3.752549792e0	8.261982693e-1	-9.238372105e0	-4.940194391e0	1.050883644e1
3.762530792e0	8.147938599e-1	-9.022915657e0	-4.628063295e0	1.017329179e1
3.772511792e0	7.418863897e-1	-8.774832914e0	-4.300432692e0	9.800092318e0
3.782492792e0	5.279182041e-1	-8.682456263e0	-3.947503234e0	9.552304757e0
3.792472792e0	2.034291276e-1	-8.635972068e0	-3.765827613e0	9.423526653e0
3.802453792e0	-2.113635434e-1	-8.515287876e0	-3.726674364e0	9.297467610e0
3.812434792e0	-4.018766467e-1	-8.282190378e0	-3.688875039e0	9.075460393e0
3.822415792e0	-3.792156163e-1	-7.910729631e0	-3.572556962e0	8.688303116e0
3.832396792e0	-9.316942457e-2	-7.372756555e0	-3.306068355e0	8.080613079e0
3.842377792e0	2.688105003e-1	-6.835335456e0	-2.834357388e0	7.404569649e0
3.852358792e0	4.631568920e-1	-6.463039142e0	-2.264533359e0	6.863927491e0
3.862339792e0	1.298312109e-1	-6.232379934e0	-1.544190597e0	6.422144531e0
3.872320792e0	-2.123864773e-1	-6.163237778e0	-8.812788945e-1	6.229547368e0
3.882301792e0	-5.164363191e-1	-5.816177462e0	-3.420229393e-1	5.849068852e0
3.892282792e0	-6.363952372e-1	-5.279205430e0	4.705663741e-2	5.317633232e0
3.902263792e0	-2.828084057e-1	-4.510029353e0	2.945491031e-1	4.528477066e0
3.912244792e0	7.375886131e-2	-3.631819662e0	3.822854045e-1	3.652628719e0
3.922225792e0	2.987757629e-1	-2.775941073e0	3.539647079e-1	2.814321732e0
3.932206792e0	-4.673544254e-2	-1.739717395e0	1.242960173e-1	1.744778014e0
3.942187792e0	-9.542010558e-1	-4.689928883e-1	-1.513083994e-1	1.073940509e0
3.952168792e0	-1.461396070e0	1.102920527e0	-6.027602255e-1	1.927545603e0
3.962149792e0	-1.632342051e0	3.229335929e0	-9.542603320e-1	3.742160324e0
3.972130792e0	-1.329613278e0	5.974197296e0	-5.252881265e-1	6.142868419e0
3.982111792e0	-6.756766858e-1	8.679542595e0	4.823186928e-1	8.719153053e0
3.992092792e0	-2.969373252e-2	1.093840035e1	1.472310190e0	1.103708210e1
4.002073792e0	2.921491682e-1	1.279121927e1	2.102429538e0	1.296614251e1
4.012054792e0	5.336065216e-1	1.417918689e1	2.592398435e0	1.442409811e1
4.022035792e0	1.250234840e0	1.544144404e1	3.171947846e0	1.581336569e1
4.032016792e0	1.731541818e0	1.663554605e1	3.713709333e0	1.713275420e1
4.041997792e0	1.727776796e0	1.728043429e1	4.161937004e0	1.785834095e1
4.051978792e0	1.071101296e0	1.712494163e1	4.662477960e0	1.778059573e1
4.061959792e0	-4.270707641e-2	1.603700751e1	5.001785452e0	1.679896698e1
4.071940792e0	-1.611721845e0	1.493662701e1	5.085770765e0	1.586081770e1
4.081921792e0	-3.438702502e0	1.390977876e1	5.738898321e0	1.543507610e1
4.091901792e0	-4.747761354e0	1.284405705e1	6.964201072e0	1.536265394e1
4.101882792e0	-5.473524778e0	1.143242225e1	8.047182595e0	1.501389023e1
4.111863792e0	-5.771311777e0	9.405276198e0	8.264292051e0	1.378643475e1
4.121844792e0	-5.714889654e0	7.141747683e0	7.257320239e0	1.167618177e1
4.131825792e0	-5.076759036e0	4.901907992e0	4.992884236e0	8.644713834e0
4.141806792e0	-3.730057563e0	3.229620688e0	2.312309496e0	5.448903965e0
4.151787792e0	-1.435202006e0	2.134909651e0	1.876856822e-1	2.579315787e0
4.161768792e0	6.378270742e-1	1.189334773e0	-1.528729974e0	2.039204726e0
4.171749792e0	1.565052731e0	3.984468162e-2	-3.110573131e0	3.482332962e0
4.181730792e0	1.556594003e0	-1.275781179e0	-3.947755249e0	4.431182011e0
4.191711792e0	1.206254642e0	-2.704076453e0	-3.592944449e0	4.655784525e0
4.201693000e0	6.074823273e-1	-4.102724006e0	-2.515184491e0	4.850518742e0
4.211674000e0	1.483493429e-2	-5.283208433e0	-1.397513192e0	5.464938659e0
4.221655000e0	-4.405077387e-1	-6.321135405e0	-7.823083377e-1	6.384575648e0
4.231636000e0	-8.030951893e-1	-7.292040421e0	-1.239634861e0	7.440128357e0
4.241617000e0	-1.063661591e0	-7.729180017e0	-2.099569080e0	8.079590957e0
4.251598000e0	-6.188304207e-1	-7.910393416e0	-2.660752094e0	8.368803785e0
4.261579000e0	6.203781787e-1	-7.671717090e0	-2.989992435e0	8.257128251e0
4.271560000e0	1.703455595e0	-7.052066013e0	-3.189660231e0	7.925107469e0
4.281541000e0	2.087055892e0	-6.725530593e0	-3.641179301e0	7.927594260e0
4.291522000e0	1.802626419e0	-6.710404431e0	-4.178374697e0	8.107885344e0
4.301503000e0	1.302291870e0	-6.876951844e0	-4.307275981e0	8.218336642e0
4.311484000e0	7.994465999e-1	-7.076388091e0	-3.849155406e0	8.095083731e0
4.321465000e0	3.398786923e-1	-7.055152758e0	-3.118123641e0	7.720970988e0
4.331446000e0	-7.427864224e-2	-6.999346932e0	-2.568187162e0	7.456001615e0
4.341427000e0	-2.518378240e-1	-7.148848541e0	-2.653274090e0	7.629503336e0
4.351408000e0	-3.494383782e-1	-6.810943796e0	-3.050462000e0	7.471036139e0
4.361389000e0	-1.169639743e-1	-6.310115157e0	-3.088048487e0	7.026185119e0
4.371369000e0	1.046830673e-1	-6.000425566e0	-2.925741475e0	6.676528192e0
4.381350000e0	3.340773772e-2	-5.849539921e0	-2.805513366e0	6.487614246e0
4.391331000e0	-1.708802728e-1	-5.804219906e0	-2.578449025e0	6.353468987e0
4.401312000e0	-3.299831203e-1	-5.896638658e0	-2.240417103e0	6.316542181e0
4.411293000e0	-5.471951219e-1	-5.775847462e0	-2.005686478e0	6.138616672e0
4.421274000e0	-7.020277479e-1	-5.725728638e0	-1.818720003e0	6.048516664e0
4.431255000e0	-7.745578533e-1	-5.650427610e0	-1.709094650e0	5.953845527e0
4.441236000e0	-7.846808454e-1	-5.298928088e0	-1.372688838e0	5.529795435e0
4.451217000e0	-6.728013906e-1	-5.253640233e0	-9.038675657e-1	5.373115855e0
4.461198000e0	-6.638381206e-1	-5.342776943e0	-6.450800335e-1	5.422368003e0
4.471179000e0	-7.784579462e-1	-5.164585969e0	-6.188003075e-1	5.259454233e0
4.481160000e0	-8.790832651e-1	-4.976403859e0	-6.392474359e-1	5.093723592e0
4.491141000e0	-1.042743761e0	-4.638185118e0	-4.882676500e-1	4.778962339e0
4.501122000e0	-8.290632588e-1	-4.251313450e0	-2.892921638e-1	4.341048478e0
4.511103000e0	-3.508604211e-1	-3.493890862e0	-1.569661653e-1	3.514970095e0
4.521084000e0	-8.105624126e-2	-2.352140729e0	-2.507075572e-1	2.366852426e0
4.531065000e0	1.852770679e-1	-1.068003879e0	-4.557360810e-1	1.175863620e0
4.541046000e0	4.241962363e-1	3.814366812e-1	-7.390430349e-1	9.336064460e-1
4.551027000e0	2.589351013e-1	1.979330446e0	-1.160568227e0	2.309050672e0
4.561008000e0	-1.248732106e-1	4.067571715e0	-1.179472860e0	4.236966981e0
4.570989000e0	-5.780034068e-1	6.579856571e0	-2.115961164e-1	6.608583309e0
4.580970000e0	-1.014653884e0	9.119111710e0	1.335782382e0	9.272110625e0
4.590951000e0	-1.184672642e0	1.136741524e1	2.910305118e0	1.179370402e1
4.600932000e0	-9.381092991e-1	1.301670662e1	4.270791110e0	1.373150964e1
4.610913000e0	-2.666037977e-1	1.412234142e1	5.256056303e0	1.507108930e1
4.620894000e0	5.011954053e-1	1.522478599e1	5.965441675e0	1.635945597e1
4.630875000e0	1.136769840e0	1.625627927e1	6.701183372e0	1.762000908e1
4.640856000e0	1.613366666e0	1.706541697e1	7.429439464e0	1.868229052e1
4.650836000e0	1.479752526e0	1.705505337e1	8.104939637e0	1.894081728e1
4.660817000e0	4.834277634e-1	1.564798173e1	8.922863365e0	1.801972600e1
4.670798000e0	-1.646090024e0	1.356539063e1	9.855058644e0	1.684789649e1
4.680779000e0	-3.977252113e0	1.138910841e1	1.055317058e1	1.602809203e1
4.690760000e0	-5.432349855e0	9.157166559e0	1.020108283e1	1.474537946e1
4.700741000e0	-5.783380430e0	7.591539484e0	8.226764036e0	1.259994474e1
4.710722000e0	-5.455234103e0	6.699649647e0	5.219407125e0	1.009391377e1
4.720703000e0	-4.263365731e0	5.828670039e0	1.827193788e0	7.449048188e0
4.730684000e0	-2.621585104e0	5.180477532e0	-1.201484703e0	5.929048947e0
4.740665000e0	-7.326273237e-1	4.315549791e0	-3.288167689e0	5.474738309e0
4.750646000e0	6.726785991e-1	3.059523430e0	-4.084809306e0	5.147703098e0
4.760627000e0	1.307598511e0	1.813564221e0	-3.672645507e0	4.299669065e0
4.770608000e0	1.313422922e0	3.993893874e-1	-2.465077069e0	2.821559251e0
4.780589000e0	5.776630258e-1	-1.409252062e0	-1.270665450e0	1.983501105e0
4.790570000e0	-4.975515667e-1	-3.235229337e0	-4.327641249e-1	3.301749720e0
4.800551000e0	-1.294195815e0	-4.543341526e0	1.150784665e-1	4.725477551e0
4.810532000e0	-1.269227327e0	-5.562590151e0	3.967119473e-1	5.719329294e0
4.820513000e0	-8.014623544e-1	-6.281179626e0	9.850833446e-2	6.332871647e0
4.830494000e0	-3.256841377e-1	-6.794289172e0	-6.614306027e-1	6.834173392e0
4.840475000e0	-2.453473415e-2	-7.353438524e0	-1.486382392e0	7.502199191e0
4.850456000e0	1.781585214e-1	-7.943000999e0	-2.318199397e0	8.276294689e0
4.860437000e0	3.193882944e-1	-8.399380274e0	-3.167704521e0	8.982535822e0
4.870418000e0	4.386527827e-1	-8.663541690e0	-3.913253753e0	9.516455527e0
4.880399000e0	5.511111850e-1	-8.734837959e0	-4.445622273e0	9.816551080e0
4.890380000e0	5.813164392e-1	-8.636536909e0	-4.587447073e0	9.796548843e0
4.900361000e0	6.751442968e-1	-8.464933993e0	-4.208415937e0	9.477430666e0
4.910342000e0	1.282964483e0	-8.278529436e0	-3.599255057e0	9.117822352e0
4.920323000e0	1.973067200e0	-7.852658594e0	-3.181877295e0	8.699516325e0
4.930303000e0	2.610111406e0	-7.407318862e0	-3.166417842e0	8.468013712e0
4.940284000e0	3.171708987e0	-7.013474389e0	-3.609861321e0	8.501744507e0
4.950265000e0	3.329563052e0	-6.760816786e0	-4.380438975e0	8.716815895e0
4.960246000e0	3.294248793e0	-6.655089186e0	-5.064287510e0	8.988286554e0
4.970227000e0	3.099918627e0	-6.650915444e0	-5.420422119e0	9.122781796e0
4.980208000e0	2.609795071e0	-6.630086492e0	-5.436290293e0	8.962272556e0
4.990189000e0	1.717046425e0	-6.483654086e0	-5.168417065e0	8.467499849e0
5.000170000e0	9.388573042e-1	-6.571580422e0	-4.870280988e0	8.233271475e0
5.010151000e0	-5.564692810e-2	-6.322897171e0	-4.534813362e0	7.781173269e0
5.020132000e0	-4.346781378e-1	-6.141608343e0	-3.999368622e0	7.341883102e0
5.030113000e0	-3.813566474e-1	-5.967565969e0	-3.359693754e0	6.858922554e0
5.040094000e0	-1.620309504e-1	-5.687734015e0	-2.861334102e0	6.368972060e0
5.050075000e0	5.531619497e-2	-5.492369184e0	-2.478516017e0	6.025962229e0
5.060056000e0	2.926278542e-1	-5.292697295e0	-2.217631965e0	5.745969653e0
5.070037000e0	4.556654759e-1	-4.983320530e0	-2.098706908e0	5.426387861e0
5.080018000e0	5.627781343e-1	-4.599744353e0	-1.965516106e0	5.033648866e0
5.089999000e0	3.881829062e-1	-4.151340680e0	-1.801733549e0	4.542087537e0
5.099980000e0	-5.958553948e-2	-3.657745047e0	-1.628107497e0	4.004170737e0
5.109961000e0	-5.476486831e-1	-2.890817226e0	-1.456366003e0	3.282947646e0
5.119942000e0	-9.749337476e-1	-1.914533356e0	-1.020900172e0	2.378691015e0
5.129923000e0	-1.363340456e0	-9.081854421e-1	-2.399320158e-1	1.655616311e0
5.139904000e0	-1.512445771e0	5.369264245e-2	6.660347003e-1	1.653474321e0
5.149885000e0	-1.365099445e0	1.047393613e0	1.124721286e0	2.055608875e0
5.159866000e0	-8.716939194e-1	2.451084974e0	1.213905358e0	2.870754963e0
5.169847000e0	-1.148805748e-1	4.091625990e0	1.009181182e0	4.215809228e0
5.179828000e0	5.431967593e-1	5.915846177e0	3.358424324e-1	5.950217546e0
5.189809000e0	6.301264373e-1	8.114064801e0	-2.801675838e-1	8.143316327e0
5.199789000e0	9.156095787e-1	1.022851914e1	1.441747963e-2	1.026942805e1
5.209769500e0	1.146151770e0	1.203578942e1	1.378828122e0	1.216860952e1
5.219750500e0	1.175312492e0	1.327503076e1	2.877248177e0	1.363401475e1
5.229731500e0	8.020304845e-1	1.451231679e1	4.110183883e0	1.510444316e1
5.239712500e0	5.467920660e-1	1.570235265e1	5.602621359e0	1.668089405e1
5.249693500e0	5.489842603e-1	1.622881607e1	7.385698782e0	1.783884529e1
5.259674500e0	6.449449629e-2	1.613565004e1	8.882253867e0	1.841895207e1
5.269655500e0	-7.003357098e-1	1.567840596e1	9.744780157e0	1.847332195e1
5.279636500e0	-1.786377299e0	1.490914393e1	9.960454706e0	1.801900038e1
5.289617500e0	-3.163537796e0	1.387781788e1	9.549387259e0	1.714037916e1
5.299598500e0	-4.309586216e0	1.257553186e1	8.871994343e0	1.598214061e1
5.309579500e0	-4.647216142e0	1.080624860e1	7.749473948e0	1.408637545e1
5.319560500e0	-4.201272393e0	8.944722011e0	5.773272933e0	1.144506103e1
5.329541500e0	-3.017166200e0	7.222875461e0	2.834771079e0	8.325211641e0
5.339522500e0	-1.666439796e0	5.854141679e0	-2.823626286e-1	6.093252420e0
5.349503500e0	-8.703969339e-1	4.539127437e0	-2.448868879e0	5.230509297e0
5.359484500e0	-7.406566472e-1	2.780305434e0	-3.013886497e0	4.166795219e0
5.369465500e0	-1.076580356e0	8.524714172e-1	-2.249163660e0	2.635236223e0
5.379446500e0	-1.554414307e0	-7.970988697e-1	-6.404677498e-1	1.860583077e0
5.389427500e0	-1.950625587e0	-2.170485281e0	1.064198511e0	3.106197837e0
5.399408500e0	-2.107411073e0	-3.586256404e0	2.301818422e0	4.754028237e0
5.409389500e0	-2.082806574e0	-4.976158860e0	2.687922935e0	6.027036580e0
5.419370500e0	-1.983733984e0	-6.168511382e0	2.226345486e0	6.851448563e0
5.429351500e0	-1.497763851e0	-7.010199949e0	1.144334602e0	7.259180501e0
5.439332500e0	-5.512244017e-1	-7.456616153e0	-4.222949776e-1	7.488878810e0
5.449313500e0	3.392995255e-1	-7.677062030e0	-2.260353185e0	8.010093763e0
5.459294500e0	8.759096888e-1	-7.797155069e0	-3.864896987e0	8.746443487e0
5.469274500e0	1.185790703e0	-7.794799225e0	-4.658357135e0	9.157799176e0
5.479255500e0	1.320986588e0	-7.808495159e0	-4.684883321e0	9.201398477e0
5.489236500e0	1.182642050e0	-7.752953627e0	-4.330836167e0	8.958966127e0
5.499217500e0	8.792345618e-1	-7.662565028e0	-4.096229503e0	8.733100959e0
5.509198500e0	4.219781682e-1	-7.459804054e0	-4.222776991e0	8.582458134e0
5.519179500e0	9.810056426e-2	-7.258768010e0	-4.370203424e0	8.473370917e0
5.529160500e0	-3.331103940e-2	-7.216797865e0	-4.418250287e0	8.461927478e0
5.539141500e0	-2.070154442e-1	-7.250325800e0	-4.321323917e0	8.442980516e0
5.549122500e0	-3.743165632e-1	-7.289448935e0	-4.086371975e0	8.365083059e0
5.559103500e0	-4.491198469e-1	-7.293109292e0	-3.812382851e0	8.241687617e0
5.569084500e0	-3.442853002e-1	-7.208990663e0	-3.633898932e0	8.080426981e0
5.579065500e0	-1.313908826e-1	-7.055465584e0	-3.600187980e0	7.922008057e0
5.589046500e0	8.637338854e-2	-6.869649841e0	-3.666849747e0	7.787511565e0
5.599027500e0	2.057711933e-1	-6.719360611e0	-3.717284321e0	7.681819546e0
5.609008500e0	1.432715112e-1	-6.677099276e0	-3.636678114e0	7.604578171e0
5.618989500e0	-6.893626057e-2	-6.730448102e0	-3.306104608e0	7.498934027e0
5.628970500e0	-3.484618201e-1	-6.744378508e0	-2.681157707e0	7.266131966e0
5.638951500e0	-3.111555610e-1	-6.794716018e0	-1.892492276e0	7.060206128e0
5.648932500e0	-3.009371862e-1	-6.747526065e0	-1.274155068e0	6.873364701e0
5.658913500e0	-1.341854862e-1	-6.537364270e0	-1.092083883e0	6.629312525e0
5.668894500e0	1.739787854e-1	-6.285282617e0	-1.305538829e0	6.421797087e0
5.678875500e0	5.313795365e-1	-5.789674957e0	-1.459461519e0	5.994391399e0
5.688856500e0	9.943500850e-1	-5.204449947e0	-1.395830948e0	5.479359030e0
5.698837500e0	1.085371133e0	-4.486826432e0	-1.098556166e0	4.745152008e0
5.708818500e0	9.232320090e-1	-3.860045260e0	-6.852813953e-1	4.027644143e0
5.718799500e0	5.860902888e-1	-3.383022391e0	-4.576709247e-1	3.463784779e0
5.728780500e0	-2.531679925e-2	-2.912239670e0	-6.896320161e-1	2.992887093e0
5.738760500e0	-7.302868295e-1	-2.129651835e0	-1.269251009e0	2.584518120e0
5.748741500e0	-1.168631537e0	-8.835277337e-1	-1.919725683e0	2.414884599e0
5.758722500e0	-1.324613908e0	9.256007892e-1	-2.245171182e0	2.766248807e0
5.768703500e0	-1.033949988e0	3.354639421e0	-1.569577745e0	3.845287053e0
5.778684500e0	-4.745657234e-1	5.707209921e0	5.300091684e-1	5.751379611e0
5.788665500e0	-6.943254299e-2	7.222086087e0	3.485670261e0	8.019553946e0
5.798646500e0	1.982302585e-1	8.170327295e0	6.114669051e0	1.020699373e1
5.808627500e0	1.900267611e-1	8.754281706e0	7.262907254e0	1.137643969e1
5.818608500e0	4.555922030e-1	9.753766158e0	6.642949197e0	1.180983880e1
5.828589500e0	1.136904106e0	1.132445341e1	4.914861914e0	1.239724420e1
5.838570500e0	2.316878657e0	1.305051288e1	2.994080223e0	1.358853670e1
5.848551500e0	3.367727536e0	1.482699172e1	1.621171822e0	1.529082962e1
5.858532500e0	3.421938242e0	1.592768095e1	1.419912414e0	1.635288455e1
5.868513500e0	2.741425251e0	1.575509804e1	2.200953952e0	1.614257492e1
5.878494500e0	1.389284990e0	1.479526590e1	3.511433094e0	1.526958310e1
5.888475500e0	-4.982655848e-1	1.382429832e1	5.197311081e0	1.477739947e1
5.898456500e0	-2.028803152e0	1.287378664e1	6.925729317e0	1.475859584e1
5.908437500e0	-3.056008669e0	1.203800434e1	8.155302290e0	1.485805145e1
5.918418500e0	-3.398113469e0	1.102991863e1	8.313381180e0	1.422387384e1
5.928399500e0	-3.409432510e0	9.863977987e0	7.179517772e0	1.266758727e1
5.938380500e0	-3.287560163e0	8.834483870e0	5.210590693e0	1.077062730e1
5.948361500e0	-2.256862397e0	7.842855152e0	3.120959541e0	8.737516424e0
5.958342500e0	-4.582322574e-1	6.895136100e0	1.400027203e0	7.050741437e0
5.968323500e0	1.284818928e0	5.906219321e0	2.839717823e-1	6.051018618e0
5.978304500e0	2.359064710e0	4.579361544e0	-5.269113135e-1	5.178163186e0
5.988284500e0	2.287475056e0	2.935193499e0	-1.284474819e0	3.936721805e0
5.998265500e0	1.412207538e0	1.194111949e0	-2.047345258e0	2.758959239e0
6.008246500e0	3.723775169e-1	-4.636362541e-1	-2.521842715e0	2.591006420e0
6.018227500e0	-6.829791272e-1	-1.846424988e0	-2.183157951e0	2.939715014e0
6.028208500e0	-1.617313245e0	-3.232490501e0	-1.202361785e0	3.809248067e0
6.038189500e0	-2.441822399e0	-4.389826972e0	-2.533364654e-1	5.029637844e0
6.048170500e0	-2.675252019e0	-5.217941812e0	3.117086345e-1	5.872056913e0
6.058151500e0	-2.007684179e0	-5.634847704e0	3.083084786e-1	5.989771158e0
6.068132500e0	-7.846940748e-1	-5.530472565e0	-3.271622407e-1	5.595436240e0
6.078113500e0	1.929350200e-1	-5.304712154e0	-1.352728783e0	5.477870947e0
6.088094500e0	9.574478685e-1	-5.250894381e0	-2.497896028e0	5.893053774e0
6.098075500e0	1.431793810e0	-5.427399017e0	-3.269870582e0	6.496056283e0
6.108056500e0	1.591765590e0	-5.582670075e0	-3.260605084e0	6.658188069e0
6.118037500e0	1.824193582e0	-5.820016159e0	-2.760190136e0	6.694693414e0
6.128018500e0	2.030157075e0	-6.070767571e0	-2.387392423e0	6.831939639e0
6.137999500e0	2.020127931e0	-6.226754327e0	-2.252719645e0	6.923014669e0
6.147980500e0	1.850708658e0	-6.359676157e0	-2.350189514e0	7.028086092e0
6.157961500e0	1.638244669e0	-6.476083111e0	-2.601198202e0	7.168663065e0
6.167942500e0	1.387424114e0	-6.609292624e0	-2.630734828e0	7.247652061e0
6.177923500e0	1.227124743e0	-6.932046649e0	-2.539380854e0	7.483819947e0
6.187904500e0	1.090342947e0	-7.203939838e0	-2.595521141e0	7.734489442e0
6.197885500e0	8.633343013e-1	-7.394684783e0	-2.655417094e0	7.904299406e0
6.207866750e0	6.059132635e-1	-7.562599860e0	-2.571031247e0	8.010633508e0
6.217847750e0	4.908127968e-1	-7.859761207e0	-2.576963248e0	8.285981113e0
6.227828750e0	2.344691084e-1	-8.046575654e0	-2.811578683e0	8.526859340e0
6.237809750e0	9.360076636e-3	-8.169923837e0	-3.127639984e0	8.748135515e0
6.247789750e0	-1.859787337e-1	-8.303878870e0	-3.349382774e0	8.955856036e0
6.257770750e0	-3.668475857e-1	-8.301859826e0	-3.357996015e0	8.962789240e0
6.267751750e0	-3.515594557e-1	-8.257816844e0	-3.127947256e0	8.837374447e0
6.277732750e0	-3.034460802e-1	-7.990010859e0	-2.412640700e0	8.351837414e0
6.287713750e0	-1.291766882e-1	-7.867639160e0	-1.511750244e0	8.012603907e0
6.297694750e0	2.392702572e-2	-8.043594743e0	-9.955928376e-1	8.105010425e0
6.307675750e0	-9.415961400e-2	-8.072953028e0	-1.043933231e0	8.140714540e0
6.317656750e0	-3.894912938e-1	-7.779498231e0	-1.337231907e0	7.903194631e0
6.327637750e0	-7.143161832e-1	-7.201566453e0	-1.528791955e0	7.396621650e0
6.337618750e0	-1.028158759e0	-6.544191479e0	-1.585979770e0	6.811672657e0
6.347599750e0	-1.167302172e0	-5.725190694e0	-1.604620694e0	6.059307750e0
6.357580750e0	-9.524880409e-1	-4.641527971e0	-1.189555213e0	4.885289856e0
6.367561750e0	-3.500355982e-1	-3.582252815e0	-4.930202669e-1	3.632922947e0
6.377542750e0	2.565367927e-1	-2.760742990e0	-1.910490006e-2	2.772702288e0
6.387523750e0	8.743272860e-1	-1.632922094e0	4.957026771e-1	1.917447239e0
6.397504750e0	1.569510210e0	4.191985846e-2	9.091671896e-1	1.814305529e0
6.407485750e0	2.163432077e0	1.760643995e0	1.002792222e0	2.964101528e0
6.417466750e0	2.303123228e0	3.458719860e0	1.188926053e0	4.322113468e0
6.427447750e0	1.230610561e0	5.807627079e0	1.647582818e0	6.160962894e0
6.437428750e0	-1.290183017e-1	7.744703205e0	1.823517351e0	7.957530332e0
6.447409750e0	-1.102200808e0	9.658298083e0	1.839462708e0	9.893492383e0
6.457390750e0	-1.951715800e0	1.262872749e1	1.694222549e0	1.289047488e1
6.467371750e0	-1.773322513e0	1.581405318e1	1.455057396e0	1.597955390e1
6.477352750e0	-9.349002741e-1	1.857720990e1	2.228165432e0	1.873369924e1
6.487333750e0	-3.245093590e-1	2.016011433e1	4.153584257e0	2.058610644e1
6.497314750e0	-6.084435730e-1	1.983906009e1	6.249882404e0	2.080912153e1
6.507294750e0	-1.290415006e0	1.854931868e1	7.765433924e0	2.015054239e1
6.517275750e0	-1.797162781e0	1.709470918e1	8.475042660e0	1.916468690e1
6.527256750e0	-2.126295679e0	1.595884193e1	8.490537196e0	1.820151068e1
6.537237750e0	-2.537476708e0	1.500779348e1	8.762860740e0	1.756304021e1
6.547218750e0	-2.537776670e0	1.375042927e1	9.158602050e0	1.671510117e1
6.557199750e0	-2.075441422e0	1.221664964e1	8.963448304e0	1.529370430e1
6.567180750e0	-1.545285780e0	1.060513947e1	7.454835091e0	1.305493997e1
6.577161750e0	-1.118998251e0	9.103763938e0	5.078902041e0	1.048455630e1
6.587142750e0	-4.732351164e-1	7.370884277e0	2.750134386e0	7.881441850e0
6.597123750e0	-2.775205493e-2	5.568658977e0	1.133620749e0	5.682941930e0
6.607104750e0	5.733019531e-2	3.724192806e0	3.226821041e-1	3.738585635e0
6.617085750e0	-1.674403558e-1	2.007329838e0	-8.385053426e-2	2.016045699e0
6.627066750e0	-5.221078990e-1	3.872692788e-1	-2.540200049e-1	6.979257233e-1
6.637047750e0	-7.726127771e-1	-1.254071052e0	-4.408636880e-1	1.537525772e0
6.647028750e0	-1.004076417e0	-2.525055175e0	-7.707331896e-1	2.824553547e0
6.657009750e0	-1.277359050e0	-3.407001822e0	-1.133378089e0	3.811017377e0
6.666990750e0	-1.375310730e0	-4.050061643e0	-1.247445864e0	4.455401227e0
6.676971750e0	-9.495813900e-1	-4.659614578e0	-9.513583589e-1	4.849618084e0
6.686952750e0	-4.773364265e-1	-5.104385961e0	-6.577895415e-1	5.168683893e0
6.696933750e0	5.447383046e-2	-5.449358236e0	-6.868408477e-1	5.492742751e0
6.706914750e0	5.979853892e-1	-5.707455504e0	-1.075665193e0	5.838637723e0
6.716895750e0	1.181244200e0	-5.854262132e0	-1.741596106e0	6.221003132e0
6.726876750e0	1.709877153e0	-6.003252695e0	-2.574767911e0	6.752196131e0
6.736857750e0	2.020135240e0	-6.106433247e0	-3.432882768e0	7.290689781e0
6.746838750e0	2.069233140e0	-6.219160548e0	-4.058666405e0	7.709244885e0
6.756818750e0	1.953518058e0	-6.461003142e0	-4.407669458e0	8.061534870e0
6.766799750e0	1.804484810e0	-6.779847134e0	-4.573817506e0	8.375099950e0
6.776780750e0	1.649961612e0	-7.166784875e0	-4.712084568e0	8.734352852e0
6.786761750e0	1.382747657e0	-7.444870266e0	-4.931851584e0	9.036661131e0
6.796742750e0	1.075598828e0	-7.553655374e0	-4.944388014e0	9.091842233e0
6.806723750e0	8.886661206e-1	-7.669950646e0	-4.622430088e0	8.999151644e0
6.816704750e0	8.140344527e-1	-7.780766492e0	-4.145857746e0	8.853875747e0
6.826685750e0	7.470635144e-1	-7.884923530e0	-3.729681880e0	8.754464569e0
6.836666750e0	5.747883884e-1	-8.028407770e0	-3.429123593e0	8.748977176e0
6.846647750e0	4.262611074e-1	-8.227044117e0	-3.259345009e0	8.859417776e0
6.856628750e0	1.801601329e-1	-8.478196063e0	-3.229004976e0	9.074069610e0
6.866609750e0	-1.074005608e-1	-8.600844920e0	-3.238818358e0	9.191083319e0
6.876590750e0	-2.807802989e-1	-8.616719525e0	-3.007804223e0	9.130913383e0
6.886571750e0	-2.488113783e-1	-8.718498500e0	-2.627120664e0	9.109110065e0
6.896552750e0	-1.761520493e-1	-8.733654483e0	-2.452033392e0	9.073048987e0
6.906533750e0	-1.006610234e-1	-8.686976745e0	-2.313445318e0	8.990312945e0
6.916514750e0	1.671933109e-1	-8.695565720e0	-2.140232372e0	8.956640632e0
6.926495750e0	4.437180063e-1	-8.604228119e0	-2.130857531e0	8.875256673e0
6.936476750e0	6.697427121e-1	-8.530767210e0	-2.241991173e0	8.845850378e0
6.946457750e0	8.569243643e-1	-8.551816016e0	-2.416304273e0	8.927844246e0
6.956438750e0	8.612791512e-1	-8.539895883e0	-2.718565269e0	9.003456036e0
6.966419750e0	5.784916493e-1	-8.530580683e0	-3.139521527e0	9.108350828e0
6.976400750e0	-4.821562864e-2	-8.421197405e0	-3.355957091e0	9.065392351e0
6.986381750e0	-7.723794001e-1	-8.120544686e0	-3.111433842e0	8.730454540e0
6.996362750e0	-1.241690158e0	-7.675686180e0	-2.312574083e0	8.112086764e0
7.006342750e0	-1.379512539e0	-7.122622025e0	-9.672148383e-1	7.319173717e0
7.016323750e0	-1.242523824e0	-6.506670481e0	2.911966020e-1	6.630642628e0
7.026304750e0	-9.874736132e-1	-5.940362383e0	4.690919986e-1	6.040120585e0
7.036285750e0	-8.665045155e-1	-4.848324108e0	-7.566712207e-1	4.982933681e0
7.046266750e0	-6.441808049e-1	-3.101801723e0	-2.581170027e0	4.086389794e0
7.056247750e0	-9.078869417e-2	-8.419727415e-1	-3.786684046e0	3.880223801e0
7.066228750e0	5.350960998e-1	1.421184475e0	-4.064197286e0	4.338639502e0
7.076209750e0	9.803611332e-1	3.402838604e0	-3.637028070e0	5.076257647e0
7.086190750e0	8.776598335e-1	5.129440695e0	-2.656188927e0	5.842669616e0
7.096171750e0	7.387277238e-2	6.653271287e0	-1.065933088e0	6.738522787e0
7.106152750e0	-1.116834562e0	7.981909541e0	1.149838001e0	8.141273045e0
7.116133750e0	-2.064601122e0	9.479662721e0	3.569326376e0	1.033763386e1
7.126114750e0	-2.634314201e0	1.109656871e1	5.504494556e0	1.266384257e1
7.136095750e0	-2.662220037e0	1.251899279e1	6.539905470e0	1.437299411e1
7.146076750e0	-2.736654800e0	1.386606381e1	7.037789451e0	1.578884053e1
7.156057750e0	-2.606683475e0	1.487884132e1	7.308564067e0	1.678063844e1
7.166038750e0	-1.730814717e0	1.592230853e1	8.081335596e0	1.793944295e1
7.176019750e0	-5.920121661e-1	1.687115376e1	9.619897664e0	1.943009878e1
7.186000750e0	4.201847906e-1	1.701446433e1	1.096644360e1	2.024676362e1
7.195981750e0	8.118483981e-1	1.683986413e1	1.192369361e1	2.064980851e1
7.205962000e0	2.845120651e-1	1.656801188e1	1.235127360e1	2.066721859e1
7.215943000e0	-1.203109936e-1	1.585992108e1	1.191155947e1	1.983524188e1
7.225924000e0	8.758010767e-2	1.524791991e1	1.004616085e1	1.826012267e1
7.235905000e0	7.888996115e-1	1.506287776e1	7.201359462e0	1.671443170e1
7.245885000e0	2.194831040e0	1.488419035e1	3.949601215e0	1.555492705e1
7.255866000e0	3.419714838e0	1.468960203e1	8.642085332e-1	1.510714116e1
7.265847000e0	3.308015770e0	1.402366381e1	-8.970839185e-1	1.443644259e1
7.275828000e0	1.888270587e0	1.205810707e1	-8.680115622e-1	1.223588803e1
7.285809000e0	-1.209135492e-1	9.476441490e0	5.385946351e-1	9.492504811e0
7.295790000e0	-1.953388104e0	7.022776725e0	2.833526207e0	7.820740935e0
7.305771000e0	-3.348320920e0	4.576409869e0	5.032500876e0	7.581612318e0
7.315752000e0	-4.486844559e0	2.474321224e0	6.356018139e0	8.164129237e0
7.325733000e0	-5.152409143e0	1.263059392e0	6.516388553e0	8.402735196e0
7.335714000e0	-4.453061101e0	7.829673189e-1	6.001086302e0	7.513709323e0
7.345695000e0	-2.148134299e0	4.074971366e-1	4.910494044e0	5.375266192e0
7.355676000e0	7.431611558e-1	2.472530222e-1	2.916786464e0	3.020110236e0
7.365657000e0	2.960969488e0	7.319018304e-2	4.015864787e-1	2.988974542e0
7.375638000e0	3.767001149e0	-3.444898796e-1	-1.955347506e0	4.258210281e0
7.385619000e0	3.284719293e0	-1.060724680e0	-3.487225621e0	4.906654687e0
7.395600000e0	2.480673054e0	-2.122396610e0	-3.799568678e0	5.009493818e0
7.405581000e0	1.688588465e0	-3.316574047e0	-3.223300725e0	4.923480677e0
7.415562000e0	7.917681094e-1	-4.247120996e0	-1.976672301e0	4.751017457e0
7.425543000e0	9.321061090e-2	-4.988144483e0	-6.729917175e-1	5.034202166e0
7.435524000e0	-4.781192225e-1	-5.806656441e0	1.834069821e-1	5.829193352e0
7.445505000e0	-8.241755712e-1	-6.425581879e0	5.765831181e-1	6.503830867e0
7.455486000e0	-6.662016383e-1	-6.986663151e0	5.393831322e-1	7.039049707e0
7.465467000e0	-1.571069370e-1	-7.499020160e0	-1.204631674e-1	7.501632978e0
7.475448000e0	4.241244252e-1	-7.739195128e0	-1.305994327e0	7.860066408e0
7.485429000e0	1.118782708e0	-7.884468616e0	-2.580196758e0	8.371017586e0
7.495409000e0	1.638113106e0	-7.924253656e0	-3.652981321e0	8.878146377e0
7.505390000e0	1.679805654e0	-7.923812191e0	-4.319428250e0	9.179651795e0
7.515371000e0	1.553617917e0	-8.094399446e0	-4.482122347e0	9.382028126e0
7.525352000e0	1.266190722e0	-8.522855342e0	-4.357116770e0	9.655401011e0
7.535333000e0	8.099827708e-1	-8.930731378e0	-4.244776555e0	9.921298455e0
7.545314000e0	2.664612718e-1	-9.238208967e0	-4.137042484e0	1.012574081e1
7.555295000e0	-1.462238069e-1	-9.551812100e0	-3.779663879e0	1.027347822e1
7.565276000e0	-3.680955277e-1	-9.680266657e0	-3.407671913e0	1.026914236e1
7.575257000e0	-4.449035293e-1	-9.828149757e0	-3.321876010e0	1.038389749e1
7.585238000e0	-5.577508445e-1	-9.881775742e0	-3.480465070e0	1.049162594e1
7.595219000e0	-6.192401643e-1	-9.947171001e0	-3.702212538e0	1.063184119e1
7.605200000e0	-6.960702391e-1	-9.976604716e0	-3.880118752e0	1.072718402e1
7.615181000e0	-6.582092254e-1	-9.938960341e0	-3.992568018e0	1.073111231e1
7.625162000e0	-6.207860219e-1	-9.947622406e0	-4.073320405e0	1.076719583e1
7.635143000e0	-6.812275207e-1	-1.004222802e1	-4.038982631e0	1.084545044e1
7.645124000e0	-8.375627714e-1	-1.012191504e1	-3.877344540e0	1.087145235e1
7.655105000e0	-9.971938053e-1	-1.015695974e1	-3.515712378e0	1.079437169e1
7.665086000e0	-1.092121890e0	-1.012316167e1	-2.975587819e0	1.060779219e1
7.675067000e0	-1.110797165e0	-1.006738274e1	-2.519300053e0	1.043709434e1
7.685048000e0	-1.059355336e0	-1.005191919e1	-2.202192685e0	1.034470714e1
7.695029000e0	-1.021740343e0	-9.995730958e0	-2.106376116e0	1.026622672e1
7.705010000e0	-9.179832559e-1	-9.825249538e0	-2.324693314e0	1.013816654e1
7.714991000e0	-7.514610592e-1	-9.357910827e0	-2.673810388e0	9.761375455e0
7.724972000e0	-5.142615934e-1	-8.677977880e0	-2.821751376e0	9.139696160e0
7.734952000e0	-4.941709258e-1	-7.947539023e0	-2.678218896e0	8.401216453e0
7.744933000e0	-1.028999150e0	-7.280458841e0	-2.264326075e0	7.693574771e0
7.754914000e0	-1.696378418e0	-6.741977057e0	-1.598239335e0	7.133465031e0
7.764895000e0	-2.269196952e0	-6.272092468e0	-8.337310910e-1	6.721867766e0
7.774876000e0	-2.433990785e0	-5.597395118e0	-5.055797938e-1	6.124602369e0
7.784857000e0	-2.119608365e0	-4.355766941e0	-7.091909525e-1	4.895752963e0
7.794838000e0	-1.236872783e0	-2.330567427e0	-7.583265674e-1	2.745261007e0
7.804819000e0	-2.095516557e-1	3.184995908e-1	-3.530633596e-1	5.196225761e-1
7.814800000e0	4.505394412e-1	2.971756724e0	2.007264349e-1	3.012410150e0
7.824781000e0	6.187719485e-1	5.596844895e0	9.393706897e-1	5.708762457e0
7.834762000e0	9.109973681e-1	7.640847884e0	1.830761759e0	7.909751021e0
7.844743000e0	1.015163761e0	9.077397088e0	2.496849961e0	9.469105295e0
7.854724000e0	8.426652711e-1	1.059245101e1	2.509011000e0	1.091811519e1
7.864705000e0	8.842068878e-1	1.300464147e1	2.348429794e0	1.324453262e1
7.874686000e0	1.332660846e0	1.589641004e1	2.799990671e0	1.619604226e1
7.884667000e0	1.899837403e0	1.818581015e1	3.704093879e0	1.865618890e1
7.894648000e0	1.777021754e0	1.955307043e1	4.495563927e0	2.014175922e1
7.904629000e0	1.056784023e0	1.990856945e1	5.270682528e0	2.062154272e1
7.914610000e0	4.773356956e-1	2.019070228e1	6.575790417e0	2.123989942e1
7.924591000e0	1.611234625e-1	2.093521422e1	8.758075964e0	2.269389895e1
7.934572000e0	-1.105628081e-1	2.171384115e1	1.190840665e1	2.476516244e1
7.944553000e0	-4.529879627e-1	2.149892089e1	1.506016582e1	2.625295016e1
7.954534000e0	-9.281671321e-1	2.012109703e1	1.629588597e1	2.590899340e1
7.964514000e0	-1.929203728e0	1.858314131e1	1.488860851e1	2.388986462e1
7.974495000e0	-2.559152336e0	1.749614509e1	1.145801200e1	2.107013035e1
7.984476000e0	-2.145248406e0	1.706242787e1	7.790462930e0	1.887908494e1
7.994457000e0	-1.432883877e0	1.663249614e1	4.977398470e0	1.742032088e1
8.004438000e0	-5.459575222e-1	1.611033277e1	2.945045181e0	1.638640237e1
8.014419000e0	-2.491702511e-1	1.542386497e1	2.015336138e0	1.555696873e1
8.024400000e0	-3.418755164e-1	1.431146961e1	2.128386205e0	1.447290811e1
8.034381000e0	-5.268447284e-1	1.287005962e1	3.002891685e0	1.322623750e1
8.044362000e0	-5.889129956e-1	1.088014338e1	4.017462538e0	1.161311085e1
8.054343000e0	-1.084628610e0	8.013632441e0	4.457443589e0	9.233825180e0
8.064324000e0	-2.281988175e0	4.430687900e0	3.956588638e0	6.363415666e0
8.074305000e0	-4.284996920e0	1.280373582e0	3.014493146e0	5.393303630e0
8.084286000e0	-5.798404266e0	-1.913378531e-1	2.617112569e0	6.364540863e0
8.094267000e0	-2.945899751e0	-5.424678308e-1	3.659044591e0	4.728763476e0
8.104248000e0	2.302891386e0	1.666783905e-1	4.642647713e0	5.185100598e0
8.114229000e0	6.689989462e0	1.122688209e0	3.805769358e0	7.778191836e0
8.124210000e0	8.965523481e0	8.170723736e-1	9.610720459e-1	9.053832229e0
8.134191000e0	8.269666811e0	-2.876806712e-1	-2.905615359e0	8.769991445e0
8.144172000e0	5.634904422e0	-1.347061661e0	-5.724160999e0	8.144491519e0
8.154153000e0	4.154646111e0	-3.551718071e0	-6.218044900e0	8.278880838e0
8.164134000e0	2.111513333e0	-5.098528220e0	-5.458595082e0	7.762070525e0
8.174115000e0	1.405599014e-1	-6.625961866e0	-3.846387334e0	7.662755592e0
8.184096000e0	-4.297302970e-1	-8.209614737e0	-2.344391999e0	8.548603167e0
8.194076000e0	-6.945318367e-1	-9.128901703e0	-1.465267804e0	9.271797588e0
8.204057250e0	-2.070522451e-1	-9.861200559e0	-1.579803064e0	9.989090290e0
8.214038250e0	6.112676319e-1	-9.993120761e0	-2.292923638e0	1.027100820e1
8.224019250e0	1.586032103e0	-9.717202349e0	-2.661789975e0	1.019924729e1
8.234000250e0	2.255454095e0	-9.492363458e0	-2.490352535e0	1.006945346e1
8.243981250e0	2.207113117e0	-9.444581181e0	-2.143879426e0	9.933160675e0
8.253962250e0	1.627139198e0	-9.793181654e0	-1.958124349e0	1.011870742e1
8.263943250e0	6.690644351e-1	-1.023160062e1	-1.902867284e0	1.042852829e1
8.273924250e0	-1.966200084e-1	-1.060789234e1	-2.038508946e0	1.080377517e1
8.283905250e0	-5.551608934e-1	-1.084825266e1	-2.561071685e0	1.116028125e1
8.293886250e0	-4.963049403e-1	-1.082393409e1	-3.493387417e0	1.138453440e1
8.303867250e0	-4.589147005e-1	-1.089347503e1	-4.287013333e0	1.171566832e1
8.313848250e0	-4.032155860e-1	-1.078767200e1	-4.531786551e0	1.170784093e1
8.323829250e0	-7.020502596e-1	-1.064775865e1	-4.137841798e0	1.144505892e1
8.333810250e0	-1.219350724e0	-1.090408889e1	-3.663565073e0	1.156752695e1
8.343791250e0	-1.873438832e0	-1.114476964e1	-3.302392503e0	1.177376149e1
8.353772250e0	-2.454688320e0	-1.145223262e1	-2.750339039e0	1.203093893e1
8.363753250e0	-2.849556056e0	-1.175821273e1	-2.091926477e0	1.227809809e1
8.373734250e0	-2.979719754e0	-1.192492387e1	-1.483715184e0	1.238078955e1
8.383715250e0	-2.778728440e0	-1.199855902e1	-1.176238326e0	1.237215773e1
8.393696250e0	-2.451945392e0	-1.195424181e1	-1.297359305e0	1.227188146e1
8.403677250e0	-1.989692150e0	-1.188549960e1	-1.799657934e0	1.218452889e1
8.413657250e0	-1.543354299e0	-1.159193195e1	-2.387498989e0	1.193545057e1
8.423638250e0	-1.190851030e0	-1.128630969e1	-2.647471898e0	1.165366981e1
8.433619250e0	-8.994588382e-1	-1.117633759e1	-2.563893259e0	1.150187362e1
8.443600250e0	-7.009943256e-1	-1.111760933e1	-2.471269562e0	1.141051285e1
8.453581250e0	-6.121803092e-1	-1.112029437e1	-2.477577538e0	1.140938658e1
8.463562250e0	-5.666072566e-1	-1.118822849e1	-2.545743794e0	1.148818141e1
8.473543250e0	-3.783130985e-1	-1.115314169e1	-2.631769200e0	1.146568356e1
8.483524250e0	-2.772774513e-1	-1.115414156e1	-2.722768248e0	1.148499994e1
8.493505250e0	-3.011958889e-1	-1.115653073e1	-2.970481446e0	1.154914096e1
8.503486250e0	-5.714476548e-2	-1.079960149e1	-3.039952800e0	1.121944610e1
8.513467250e0	3.804222258e-1	-1.037560819e1	-2.775839916e0	1.074724400e1
8.523448250e0	7.763003967e-1	-9.689507596e0	-2.422027967e0	1.001775520e1
8.533429250e0	1.052267487e0	-8.901591779e0	-1.979081793e0	9.179453568e0
8.543410250e0	1.130461352e0	-8.223577888e0	-1.482917770e0	8.432331899e0
8.553391250e0	8.830174910e-1	-7.388524742e0	-1.005862741e0	7.508780034e0
8.563372250e0	3.768072212e-1	-6.143420395e0	-3.718536794e-1	6.166187881e0
8.573353250e0	-1.032955230e-1	-4.618283535e0	6.665013081e-1	4.667272947e0
8.583334250e0	-2.912117317e-1	-3.334138498e0	1.763803392e0	3.783158232e0
8.593315250e0	-1.475544870e-1	-2.256110153e0	2.853497372e0	3.640639037e0
8.603296250e0	1.572776757e-1	-2.006959709e0	3.930914683e0	4.416414132e0
8.613277250e0	4.527783401e-1	-2.221248468e0	3.877826643e0	4.491825070e0
8.623258250e0	4.476102054e-1	-1.334731053e0	2.407510207e0	2.788900729e0
8.633239250e0	1.929872795e-1	5.294741482e-1	3.115196232e-1	6.439188142e-1
8.643219250e0	2.629614209e-1	2.731396984e0	-1.669049701e0	3.211760436e0
8.653200250e0	8.835615744e-1	4.955347450e0	-2.924528178e0	5.821427185e0
8.663181250e0	1.479011830e0	6.474755793e0	-2.923541168e0	7.256516488e0
8.673162250e0	1.241640456e0	7.287219391e0	-1.997259763e0	7.657302661e0
8.683143250e0	7.834260330e-2	7.546990133e0	-5.954779570e-1	7.570851447e0
8.693124250e0	-9.639501916e-1	7.041229953e0	3.604837686e-1	7.116042985e0
8.703105250e0	-1.419733196e0	6.608707318e0	2.947813837e-1	6.765910938e0
8.713086250e0	-1.633934540e0	6.375616837e0	-5.167010517e-1	6.601909732e0
8.723067250e0	-1.366855656e0	6.292424991e0	-1.557585545e0	6.624875801e0
8.733048250e0	-6.482765602e-1	6.653060203e0	-2.641073874e0	7.187401740e0
8.743029250e0	-1.229571145e-1	7.534095268e0	-2.928999544e0	8.084352064e0
8.753010250e0	-1.873709192e-1	8.676086306e0	-1.943937249e0	8.893170047e0
8.762991250e0	-7.909031600e-1	9.657347326e0	6.740904093e-2	9.689913785e0
8.772972250e0	-1.773947727e0	1.031152972e1	2.810342581e0	1.083386178e1
8.782953250e0	-2.503289208e0	1.099938915e1	5.386664974e0	1.250076710e1
8.792934250e0	-2.966904704e0	1.193256033e1	7.451905636e0	1.437774034e1
8.802915250e0	-2.744312606e0	1.306829309e1	9.312545789e0	1.627989696e1
8.812896250e0	-2.094635053e0	1.378260065e1	1.083594193e1	1.765687442e1
8.822877250e0	-1.027767580e0	1.395654012e1	1.139405282e1	1.804621173e1
8.832858250e0	2.920614783e-1	1.436571306e1	1.081123979e1	1.798171064e1
8.842839250e0	1.863218922e0	1.532112939e1	9.971176161e0	1.837479101e1
8.852820250e0	3.724253325e0	1.675158872e1	9.535242845e0	1.963177637e1
8.862801250e0	4.853691267e0	1.824622709e1	9.103438248e0	2.096081367e1
8.872781250e0	4.657103492e0	1.903795412e1	8.712015692e0	2.144834556e1
8.882762250e0	3.261132503e0	1.847304760e1	8.495371674e0	2.059271261e1
8.892743250e0	1.730569719e0	1.800064637e1	8.294983501e0	1.989534852e1
8.902724250e0	1.658331901e0	1.840687349e1	8.516252081e0	2.034919178e1
8.912705250e0	2.744199463e0	1.933990551e1	9.585007328e0	2.175856018e1
8.922686250e0	4.197870483e0	1.999166774e1	1.088621980e1	2.314732549e1
8.932667250e0	5.303559083e0	1.954341551e1	1.146387091e1	2.327000569e1
8.942648250e0	5.246715376e0	1.738525265e1	1.055115330e1	2.100242528e1
8.952629250e0	3.824733925e0	1.431212450e1	8.279418797e0	1.697098327e1
8.962610250e0	1.405495373e0	1.092819345e1	5.356748280e0	1.225135019e1
8.972591250e0	-1.271183221e0	8.261472523e0	2.610577721e0	8.756880213e0
8.982572250e0	-2.550762751e0	6.226239188e0	1.230043089e0	6.839989111e0
8.992553250e0	-2.411779990e0	4.733781247e0	3.740253353e-1	5.325904859e0
9.002534250e0	-1.878376805e0	3.614212527e0	-9.461531675e-1	4.181630953e0
9.012515250e0	-1.620622623e0	2.267838498e0	-2.544786897e0	3.774314439e0
9.022496250e0	-1.725579266e0	6.735308307e-1	-3.842632837e0	4.265805282e0
9.032477250e0	-1.939703573e0	-1.195456223e0	-4.617696767e0	5.149241591e0
9.042458250e0	-2.432463785e0	-2.537113888e0	-4.719890016e0	5.884826991e0
9.052439250e0	-2.961922292e0	-3.312340663e0	-3.726699800e0	5.799385806e0
9.062420250e0	-3.239189656e0	-3.848116940e0	-2.193723285e0	5.487510863e0
9.072401250e0	-3.375063745e0	-4.514936922e0	-1.311345991e0	5.787515788e0
9.082381250e0	-2.815643375e0	-5.092314969e0	-1.397398587e0	5.984333059e0
9.092362250e0	-2.321754504e0	-5.300654771e0	-1.959007863e0	6.109435062e0
9.102343250e0	-1.751205128e0	-5.443832617e0	-2.303580481e0	6.165104702e0
9.112324250e0	-1.206191638e0	-5.647766542e0	-2.131215965e0	6.155830299e0
9.122305250e0	-5.873210181e-1	-6.031141575e0	-1.667377982e0	6.284883771e0
9.132286250e0	1.740341512e-1	-6.489496624e0	-1.341563232e0	6.629000394e0
9.142267250e0	7.058592090e-1	-7.101160989e0	-1.207909916e0	7.237663365e0
9.152248250e0	9.711867057e-1	-7.755118266e0	-9.388368389e-1	7.871878908e0
9.162229250e0	1.088872665e0	-8.204163378e0	-6.623635259e-1	8.302569834e0
9.172210250e0	1.066357669e0	-8.789984804e0	-8.796410894e-1	8.898017756e0
9.182191250e0	1.026646961e0	-9.292082874e0	-1.683503433e0	9.498999522e0
9.192172250e0	1.032517420e0	-9.596300055e0	-2.590679938e0	9.993332253e0
9.202153250e0	1.272863565e0	-9.817442336e0	-3.361204675e0	1.045466654e1
9.212134875e0	1.456054346e0	-9.663728392e0	-3.970643005e0	1.054863719e1
9.222115875e0	1.417659189e0	-9.462035120e0	-4.366652702e0	1.051701108e1
9.232096875e0	1.172180505e0	-9.364166763e0	-4.520241516e0	1.046394809e1
9.242077875e0	8.983654089e-1	-9.281855509e0	-4.408041049e0	1.031458811e1
9.252058875e0	5.006884517e-1	-9.197094855e0	-4.028284273e0	1.005307500e1
9.262039875e0	8.697309360e-2	-9.004734909e0	-3.476115326e0	9.652781613e0
9.272020875e0	-1.113718434e-1	-8.864170184e0	-3.041001498e0	9.371958538e0
9.282001875e0	-2.084990656e-1	-8.857769821e0	-2.872282721e0	9.314159441e0
9.291982875e0	-4.759970487e-1	-8.971320410e0	-2.458022988e0	9.314131205e0
9.301962875e0	-7.345535427e-1	-9.235179525e0	-1.661269688e0	9.412115955e0
9.311943875e0	-1.073775666e0	-9.389779322e0	-9.249891704e-1	9.496133680e0
9.321924875e0	-1.554426294e0	-9.558315373e0	-3.752129048e-1	9.691151562e0
9.331905875e0	-2.129450398e0	-9.817133603e0	8.818112835e-2	1.004581739e1
9.341886875e0	-2.573450240e0	-1.014769191e1	4.457171693e-1	1.047840450e1
9.351867875e0	-2.839240398e0	-1.038459536e1	7.112442023e-1	1.078920642e1
9.361848875e0	-2.792510035e0	-1.060234216e1	7.369813067e-1	1.098867203e1
9.371829875e0	-2.509088476e0	-1.066372389e1	5.468625981e-1	1.096857287e1
9.381810875e0	-2.028664573e0	-1.050174198e1	4.808443174e-2	1.069599817e1
9.391791875e0	-1.551674741e0	-1.036608424e1	-7.380573405e-1	1.050752709e1
9.401772875e0	-1.176599465e0	-1.024584912e1	-1.570576158e0	1.043209087e1
9.411753875e0	-8.142256567e-1	-1.020221251e1	-2.277035729e0	1.048489367e1
9.421734875e0	-5.689804953e-1	-1.004801559e1	-2.601327426e0	1.039486703e1
9.431715875e0	-3.131300926e-1	-9.996441979e0	-2.565709696e0	1.032520067e1
9.441696875e0	-3.179194008e-1	-1.003694564e1	-2.383063291e0	1.032086921e1
9.451677875e0	-5.284846531e-1	-1.004370736e1	-2.327132188e0	1.032331816e1
9.461658875e0	-7.816848783e-1	-1.004899909e1	-2.612280430e0	1.041236875e1
9.471639875e0	-8.044462616e-1	-1.012507371e1	-2.876996162e0	1.055657891e1
9.481620875e0	-6.669642614e-1	-9.965083362e0	-2.996133181e0	1.042710611e1
9.491601875e0	-3.323772627e-1	-9.666588265e0	-2.758102387e0	1.005785922e1
9.501582875e0	-1.308755236e-1	-9.440087596e0	-2.373684211e0	9.734821979e0
9.511563875e0	-2.955494886e-1	-9.222014519e0	-2.281141498e0	9.504551953e0
9.521543875e0	-7.051348852e-1	-8.777370606e0	-2.043634469e0	9.039684276e0
9.531524875e0	-1.138542569e0	-8.119037858e0	-1.284639126e0	8.298515085e0
9.541505875e0	-1.378859551e0	-7.219180605e0	-3.950549926e-1	7.360291484e0
9.551486875e0	-1.550726761e0	-5.955547602e0	3.154074369e-1	6.162205983e0
9.561467875e0	-1.754374903e0	-4.275727329e0	1.045576299e0	4.738449672e0
9.571448875e0	-1.579649721e0	-1.930324346e0	2.223126448e0	3.341217821e0
9.581429875e0	-7.169252108e-1	2.023493296e-1	3.520995630e0	3.598935570e0
9.591410875e0	7.515930600e-1	1.350096951e0	3.768594807e0	4.073077550e0
9.601391875e0	2.422955920e0	1.967071173e0	1.951891801e0	3.681027845e0
9.611372875e0	2.962843228e0	2.657624418e0	-1.276278192e0	4.179748027e0
9.621353875e0	2.406290917e0	4.146367623e0	-4.853826923e0	6.822187057e0
9.631334875e0	2.311038896e0	5.818629785e0	-7.392472197e0	9.687414440e0
9.641315875e0	1.481899185e0	7.647119023e0	-8.781809812e0	1.173859609e1
9.651296875e0	4.473715659e-1	9.274318448e0	-9.509549010e0	1.329077298e1
9.661277875e0	-1.816142989e-1	1.105511078e1	-9.973011017e0	1.488990956e1
9.671258875e0	-2.171865224e0	1.341961486e1	-9.610613455e0	1.664833182e1
9.681239875e0	-4.125355361e0	1.493560024e1	-6.740425206e0	1.689745672e1
9.691220875e0	-4.371501506e0	1.581155759e1	-1.781377637e0	1.650117223e1
9.701201875e0	-3.982477770e0	1.717056160e1	3.540981413e0	1.797851118e1
9.711182875e0	-2.720501282e0	1.823381228e1	8.825804263e0	2.043937030e1
9.721163875e0	-1.335989228e0	1.820495042e1	1.394377097e1	2.297028158e1
9.731144875e0	-8.375266649e-1	1.829509812e1	1.697587037e1	2.497182894e1
9.741124875e0	-1.306886612e0	1.873306626e1	1.730137317e1	2.553376662e1
9.751105875e0	-1.615565366e0	1.969099689e1	1.615597379e1	2.552177304e1
9.761086875e0	-1.450997966e0	2.023597844e1	1.542173541e1	2.548391928e1
9.771067875e0	-8.108502784e-1	1.930254297e1	1.443473945e1	2.411653678e1
9.781048875e0	-3.336023641e-1	1.761760931e1	1.186006304e1	2.124035178e1
9.791029875e0	-1.123964949e-1	1.589668252e1	8.169116921e0	1.787320955e1
9.801010875e0	4.327195399e-2	1.397199548e1	4.408026431e0	1.465091216e1
9.810991875e0	-6.384925604e-2	1.164793658e1	9.741779950e-1	1.168877779e1
9.820972875e0	-1.052173932e0	9.554653847e0	-1.945271291e0	9.807270798e0
9.830953875e0	-2.193094417e0	7.587209621e0	-3.642360146e0	8.697252462e0
9.840934875e0	-2.676505077e0	6.020624188e0	-3.340571605e0	7.387219619e0
9.850915875e0	-1.378394551e0	4.725009838e0	-7.565984228e-1	4.979772152e0
9.860896875e0	7.753974404e-1	3.737897510e0	2.316466574e0	4.465326010e0
9.870877875e0	2.551422317e0	2.693137482e0	3.831891502e0	5.333492085e0
9.880858875e0	3.111924131e0	1.499058863e0	3.222078949e0	4.723668280e0
9.890839875e0	2.669856793e0	2.640064645e-1	1.481428923e0	3.064713097e0
9.900820875e0	1.797491979e0	-1.265036336e0	-1.327996230e-1	2.202028629e0
9.910801875e0	5.312793298e-1	-3.018315178e0	-1.032662138e0	3.234018450e0
9.920782875e0	-7.372432619e-1	-4.324711209e0	-1.164065739e0	4.538909970e0
9.930763875e0	-1.628104866e0	-5.247732791e0	-8.306642264e-1	5.556926125e0
9.940744875e0	-1.926650541e0	-6.119395355e0	-5.604041648e-1	6.439956106e0
9.950724875e0	-1.649108357e0	-7.061949561e0	-7.867685938e-1	7.294497570e0
9.960705875e0	-1.013035082e0	-7.427898138e0	-1.325566420e0	7.612951934e0
9.970686875e0	-4.461666740e-1	-7.338464974e0	-1.922737584e0	7.599279748e0
9.980667875e0	-5.944681428e-3	-7.315416420e0	-2.531212001e0	7.740955169e0
9.990648875e0	2.950616115e-1	-7.626893504e0	-3.178369843e0	8.267926024e0
1.000062988e1	4.717858474e-1	-7.995433567e0	-3.788252562e0	8.860044993e0
1.001061088e1	6.764190629e-1	-8.108121107e0	-4.129977001e0	9.124466048e0
1.002059187e1	1.190555964e0	-8.052079053e0	-4.150822032e0	9.136888098e0
1.003057288e1	1.731962818e0	-7.938542497e0	-4.113926101e0	9.107389316e0
1.004055387e1	2.032396705e0	-7.830768372e0	-4.229991578e0	9.129315331e0
1.005053488e1	2.306171966e0	-7.559023118e0	-4.505838654e0	9.097243627e0
1.006051588e1	2.395561861e0	-7.494001495e0	-4.817026302e0	9.225102570e0
1.007049687e1	2.197368439e0	-7.542747978e0	-5.008167104e0	9.316824183e0
1.008047788e1	1.845048407e0	-7.523964382e0	-5.069261152e0	9.258058775e0
1.009045887e1	1.510411232e0	-7.447314402e0	-4.815241147e0	8.996131457e0
1.010043988e1	1.220259308e0	-7.524349714e0	-4.189215435e0	8.697953630e0
1.011042088e1	7.993424463e-1	-7.658427538e0	-3.439344234e0	8.433240745e0
1.012040187e1	3.438659086e-1	-7.578547556e0	-2.885576951e0	8.116599113e0
1.013038288e1	2.240915797e-1	-7.391104533e0	-2.430111011e0	7.783577762e0
1.014036388e1	4.083757538e-1	-6.969836619e0	-1.790793993e0	7.207796916e0
1.015034488e1	8.553368452e-1	-6.586374462e0	-9.665929869e-1	6.711648954e0
1.016032488e1	1.217101300e0	-6.406138133e0	-1.169548380e-1	6.521780415e0
1.017030587e1	1.313507561e0	-6.319824459e0	5.804577756e-1	6.480926981e0
1.018028688e1	1.311069564e0	-6.174596579e0	9.466095427e-1	6.382837609e0
1.019026788e1	1.381176218e0	-5.802497317e0	9.841545144e-1	6.045261199e0
1.020024888e1	1.462050081e0	-5.182094287e0	8.391108218e-1	5.449385159e0
1.021022975e1	1.389367875e0	-4.131380040e0	8.351075256e-1	4.438023063e0
1.022021075e1	9.214915853e-1	-2.898772362e0	1.252485872e0	3.289490661e0
1.023019175e1	-2.521370552e-2	-1.798711123e0	2.149569206e0	2.802970782e0
1.024017275e1	-8.173389336e-1	-5.588201541e-1	3.163373781e0	3.314703090e0
1.025015375e1	-9.509744161e-1	8.646891743e-1	3.778232773e0	3.990874916e0
1.026013475e1	-5.300275140e-1	2.356474686e0	4.016128204e0	4.686489929e0
1.027011575e1	2.741703871e-1	4.110579740e0	3.351214415e0	5.310618914e0
1.028009675e1	7.980934811e-1	6.409325450e0	2.139472818e0	6.803951048e0
1.029007775e1	1.010877021e0	9.178508311e0	9.956524792e-1	9.287529867e0
1.030005875e1	6.575477591e-1	1.151896338e1	2.486627859e-1	1.154039512e1
1.031003975e1	-1.124501431e-1	1.284929967e1	-1.433149633e-1	1.285059089e1
1.032002075e1	-1.056169846e0	1.361287002e1	-5.534714136e-1	1.366499380e1
1.033000175e1	-1.758614134e0	1.465496079e1	-9.230402935e-1	1.478893515e1
1.033998275e1	-2.369802244e0	1.580966426e1	-7.147805983e-1	1.600226103e1
1.034996375e1	-2.999399728e0	1.658154935e1	6.029470441e-1	1.686142707e1
1.035994475e1	-3.533468326e0	1.663743236e1	2.756835588e0	1.723048741e1
1.036992575e1	-4.065328723e0	1.535651440e1	4.843062783e0	1.660736852e1
1.037990675e1	-4.398685504e0	1.384356372e1	5.936798505e0	1.569198098e1
1.038988675e1	-4.720941930e0	1.297650584e1	5.940897403e0	1.503234042e1
1.039986775e1	-4.660589894e0	1.195876638e1	5.417944070e0	1.393152215e1
1.040984875e1	-4.203023635e0	1.030743316e1	4.853596250e0	1.214355725e1
1.041982975e1	-3.702711305e0	8.291191581e0	4.215947735e0	1.001140071e1
1.042981075e1	-3.235843002e0	5.702008238e0	2.845579657e0	7.147090420e0
1.043979175e1	-3.139274189e0	3.115651438e0	4.724480081e-1	4.448093237e0
1.044977275e1	-3.184964333e0	1.491917658e0	-2.116560211e0	4.104831693e0
1.045975375e1	-2.269385963e0	3.378047580e-1	-3.595117275e0	4.264867281e0
1.046973475e1	-2.197145368e-1	-5.527267706e-1	-3.409240429e0	3.460737156e0
1.047971575e1	1.552367636e0	-7.680060482e-1	-1.935259981e0	2.597096410e0
1.048969675e1	2.480932671e0	-9.860025269e-1	-1.644207805e-1	2.674745239e0
1.049967775e1	2.733100570e0	-1.924760136e0	1.115265169e0	3.523968885e0
1.050965875e1	2.463212099e0	-3.414078707e0	1.410526171e0	4.439924700e0
1.051963975e1	1.977788827e0	-4.888468752e0	7.937484151e-1	5.332805259e0
1.052962075e1	1.461076666e0	-5.782688119e0	-3.358433095e-1	5.973861200e0
1.053960175e1	1.168030078e0	-6.582577865e0	-1.499024949e0	6.851401419e0
1.054958275e1	1.008336771e0	-7.186624478e0	-2.495602750e0	7.674134969e0
1.055956375e1	7.537367955e-1	-7.612660212e0	-3.300524025e0	8.331516879e0
1.056954475e1	6.975583555e-1	-8.210080760e0	-3.790532391e0	9.069738119e0
1.057952575e1	6.723629956e-1	-8.453595657e0	-3.970344213e0	9.363705714e0
1.058950575e1	7.275763527e-1	-8.465117596e0	-3.913319827e0	9.354231947e0
1.059948675e1	9.314668621e-1	-8.485010993e0	-3.638232304e0	9.278996517e0
1.060946775e1	1.075114678e0	-8.473802465e0	-3.363418723e0	9.180075452e0
1.061944875e1	1.218333016e0	-8.339666169e0	-3.536948296e0	9.140260959e0
1.062942975e1	1.359013370e0	-7.965175980e0	-3.795261034e0	8.927202924e0
1.063941075e1	1.540537403e0	-7.599615659e0	-3.785552902e0	8.628894739e0
1.064939175e1	1.599664301e0	-7.368166491e0	-3.593206989e0	8.352241602e0
1.065937275e1	1.229930968e0	-7.098315734e0	-3.358513786e0	7.948486101e0
1.066935375e1	8.878789392e-1	-6.947154100e0	-2.996726089e0	7.617850507e0
1.067933475e1	7.289604617e-1	-6.847307630e0	-2.613204875e0	7.365177856e0
1.068931575e1	5.332335424e-1	-6.894772403e0	-2.416020976e0	7.325256436e0
1.069929675e1	2.281091285e-1	-7.074619893e0	-2.312569405e0	7.446492977e0
1.070927775e1	-1.598534473e-1	-7.063616602e0	-2.092883373e0	7.368880067e0
1.071925875e1	-2.559707822e-1	-6.886278153e0	-1.571414648e0	7.067934057e0
1.072923975e1	-2.229323327e-1	-6.522109469e0	-9.036520958e-1	6.588186235e0
1.073922075e1	-4.729358120e-1	-6.023570600e0	-3.689423507e-1	6.053361836e0
1.074920175e1	-8.547668879e-1	-5.385525936e0	1.006107008e-1	5.453864553e0
1.075918275e1	-1.109892309e0	-4.740423684e0	5.334274507e-1	4.897756883e0
1.076916375e1	-1.381582453e0	-3.944508290e0	7.419499782e-1	4.244809242e0
1.077914475e1	-1.774193456e0	-2.682571564e0	1.133108825e0	3.409968947e0
1.078912575e1	-2.104680423e0	-1.179888597e0	1.990843028e0	3.128142060e0
1.079910575e1	-2.368431949e0	4.790138465e-1	2.983663409e0	3.839423329e0
1.080908675e1	-2.541413638e0	2.533509665e0	4.015723284e0	5.385488650e0
1.081906775e1	-2.405739232e0	4.955221735e0	4.841218279e0	7.333430174e0
1.082904875e1	-1.339098338e0	7.344267751e0	4.769358338e0	8.858794055e0
1.083902975e1	7.935037091e-4	9.508857284e0	3.364859477e0	1.008665687e1
1.084901075e1	1.158901185e0	1.140238159e1	1.233248532e0	1.152728328e1
1.085899175e1	1.848783462e0	1.243407485e1	-2.476784071e-1	1.257320811e1
1.086897275e1	1.838283179e0	1.228054919e1	-1.167924901e0	1.247217791e1
1.087895375e1	1.096988235e0	1.141424676e1	-2.478522741e0	1.173164470e1
1.088893475e1	-1.167659730e-2	1.077989520e1	-3.944424383e0	1.147888325e1
1.089891575e1	-1.101337467e0	1.018189110e1	-4.786244804e0	1.130451193e1
1.090889675e1	-2.481602469e0	9.496997377e0	-4.375265651e0	1.074682555e1
1.091887775e1	-3.326877718e0	8.695411938e0	-2.545274262e0	9.651773164e0
1.092885875e1	-3.087954639e0	7.787897757e0	3.175564349e-1	8.383773459e0
1.093883975e1	-2.192513496e0	6.697161072e0	3.277891500e0	7.771978805e0
1.094882075e1	-1.100076588e0	5.353297838e0	5.667012067e0	7.872927792e0
1.095880175e1	-1.393417802e-1	3.831200361e0	7.407366225e0	8.340658650e0
1.096878275e1	2.415170498e-1	1.975427429e0	8.183667718e0	8.422176757e0
1.097876375e1	2.093868922e-1	6.491578817e-3	8.032854577e0	8.035585708e0
1.098874475e1	3.634804666e-1	-2.018391600e0	6.934658600e0	7.231563635e0
1.099872575e1	7.364326186e-1	-3.475449913e0	4.782996676e0	5.958031747e0
1.100870575e1	1.534246237e0	-4.532200826e0	2.173678445e0	5.255438500e0
1.101868675e1	2.380488469e0	-5.371735863e0	-5.995723236e-1	5.906078099e0
1.102866775e1	2.787666494e0	-6.205655819e0	-3.043860494e0	7.452941388e0
1.103864875e1	2.652698139e0	-6.935424585e0	-4.684638323e0	8.779678685e0
1.104862975e1	2.551435766e0	-7.609530197e0	-5.194616100e0	9.560272523e0
1.105861075e1	2.493536344e0	-8.010593058e0	-4.784531862e0	9.658109017e0
1.106859175e1	2.433704125e0	-8.061383142e0	-3.781219823e0	9.230733302e0
1.107857275e1	2.357188777e0	-8.106403195e0	-2.518748661e0	8.809892536e0
1.108855375e1	2.209767899e0	-7.981176885e0	-1.599277508e0	8.434450023e0
1.109853475e1	2.094360088e0	-7.675763363e0	-1.144973118e0	8.038323882e0
1.110851575e1	1.950051683e0	-7.373411443e0	-1.018541113e0	7.694629548e0
1.111849675e1	1.676191783e0	-6.869948634e0	-1.029513705e0	7.146027679e0
1.112847775e1	1.507169536e0	-6.288930695e0	-9.247713616e-1	6.532795066e0
1.113845875e1	1.316790918e0	-5.641596560e0	-5.549408188e-1	5.819751660e0
1.114843975e1	6.896996976e-1	-4.762689296e0	-6.811801583e-2	4.812851033e0
1.115842075e1	-7.071889389e-1	-3.602143874e0	1.984732103e-1	3.676268257e0
1.116840175e1	-2.613351348e0	-2.178326397e0	5.081312263e-1	3.439899490e0
1.117838275e1	-4.343754129e0	-2.848950577e-1	1.311489540e0	4.546357876e0
1.118836375e1	-5.526918628e0	1.843528277e0	2.562563310e0	6.364916083e0
1.119834475e1	-5.778547706e0	4.119908972e0	3.296221059e0	7.824981585e0
1.120832587e1	-4.270466297e0	6.162658319e0	2.141705578e0	7.797572874e0
1.121830588e1	-1.926498952e0	8.218077412e0	-9.226713341e-1	8.491143442e0
1.122828688e1	9.820632577e-2	1.055511420e1	-4.011224144e0	1.129203256e1
1.123826788e1	1.372282457e0	1.245057452e1	-5.269252299e0	1.358914953e1
1.124824888e1	1.651915605e0	1.244842976e1	-4.472357205e0	1.333019909e1
1.125822987e1	7.619309373e-1	1.044056374e1	-2.902860443e0	1.086335623e1
1.126821088e1	-1.003682972e0	8.236217229e0	-2.024542579e0	8.540575297e0
1.127819188e1	-2.902623923e0	6.986372545e0	-1.034594935e0	7.635771975e0
1.128817287e1	-3.726862060e0	6.313429944e0	1.015306725e0	7.401334084e0
1.129815388e1	-3.347109377e0	5.678360928e0	3.716858643e0	7.567163417e0
1.130813487e1	-2.454683935e0	5.006572568e0	6.310408688e0	8.420955997e0
1.131811588e1	-8.750751449e-1	3.852075505e0	8.577761282e0	9.443634407e0
1.132809688e1	1.326575357e0	1.938681772e0	9.587909301e0	9.871488943e0
1.133807787e1	3.292640224e0	-6.410360992e-2	8.557567338e0	9.169380986e0
1.134805888e1	4.322134926e0	-1.832081768e0	5.936540058e0	7.568347361e0
1.135803987e1	4.696937941e0	-3.630218110e0	2.444900959e0	6.420066218e0
1.136802088e1	4.645830937e0	-5.041114410e0	-9.057895455e-1	6.914986210e0
1.137800188e1	4.228999890e0	-6.310777647e0	-3.359916533e0	8.306587367e0
1.138798287e1	3.553420780e0	-7.643669166e0	-4.967126082e0	9.783906125e0
1.139796388e1	2.338720200e0	-8.667659883e0	-5.786466005e0	1.068087678e1
1.140794388e1	7.177327844e-1	-9.351592911e0	-5.364833225e0	1.080503891e1
1.141792488e1	-7.038559529e-1	-9.752616595e0	-3.548865214e0	1.040208575e1
1.142790588e1	-1.362539826e0	-9.960609072e0	-1.094245598e0	1.011274549e1
1.143788687e1	-1.345811819e0	-9.622011432e0	1.039454849e0	9.771119682e0
1.144786788e1	-7.290823761e-1	-9.036606327e0	2.294691251e0	9.351867352e0
1.145784888e1	1.907524006e-1	-8.292100824e0	2.654125444e0	8.708599452e0
1.146782988e1	9.526762482e-1	-7.430081488e0	2.330147305e0	7.844953117e0
1.147781088e1	1.030364913e0	-6.421347910e0	1.314107339e0	6.634925692e0
1.148779187e1	1.078763048e-1	-5.344731667e0	-5.951179147e-2	5.346151470e0
1.149777288e1	-1.096383340e0	-4.267520177e0	-1.212250012e0	4.569828770e0
1.150775388e1	-2.299957692e0	-2.906269078e0	-1.853900799e0	4.144050375e0
1.151773488e1	-2.909900783e0	-8.534519953e-1	-1.988865500e0	3.626498153e0
1.152771588e1	-2.781027858e0	1.603036391e0	-2.279532637e0	3.937017991e0
1.153769687e1	-1.718480162e0	4.349929081e0	-3.251512371e0	5.696261034e0
1.154767788e1	3.444107229e-1	7.356439315e0	-4.450966628e0	8.605052125e0
1.155765888e1	3.114079999e0	1.015027988e1	-4.793323736e0	1.164910419e1
1.156763988e1	5.358677861e0	1.201748997e1	-4.258731228e0	1.383012239e1
1.157762088e1	4.999395695e0	1.200123939e1	-3.602853726e0	1.349089542e1
1.158760187e1	2.652868293e0	1.003467809e1	-3.533228298e0	1.096431379e1
1.159758288e1	-1.363755901e0	7.702293935e0	-3.870778117e0	8.727432913e0
1.160756388e1	-5.233962014e0	6.199588748e0	-3.034254688e0	8.662329971e0
1.161754387e1	-7.234464058e0	4.972154102e0	-5.313867724e-1	8.794439068e0
1.162752488e1	-7.549595652e0	4.427994087e0	2.748053362e0	9.173621064e0
1.163750587e1	-6.127268631e0	3.833542755e0	6.146563858e0	9.487872163e0
1.164748688e1	-3.348714730e0	3.336410726e0	8.860634372e0	1.004272714e1
1.165746788e1	-4.623905779e-1	2.447280775e0	9.621271175e0	9.938402651e0
1.166744887e1	1.531834553e0	1.102182024e0	8.324599648e0	8.535823429e0
1.167742988e1	2.905013388e0	-5.893636698e-1	6.095170341e0	6.777724825e0
1.168741088e1	3.558831793e0	-2.953552002e0	3.740712067e0	5.948250157e0
1.169739188e1	3.298240395e0	-5.336412833e0	1.379076921e0	6.423203623e0
1.170737288e1	2.573643783e0	-7.224615008e0	-7.870630011e-1	7.709615587e0
1.171735387e1	1.657621757e0	-8.499255395e0	-2.109065250e0	8.912530975e0
1.172733488e1	9.359649058e-1	-9.354664453e0	-2.196908848e0	9.654645816e0
1.173731588e1	4.655944135e-1	-9.921426880e0	-1.471633375e0	1.004077658e1
1.174729688e1	2.268477745e-1	-9.992959378e0	-6.737123868e-1	1.001821269e1
1.175727788e1	3.773681885e-1	-9.735310006e0	6.654745370e-2	9.742848466e0
1.176725887e1	5.925873128e-1	-9.288051218e0	5.643536666e-1	9.324030793e0
1.177723988e1	5.126644995e-1	-8.680680463e0	5.232451093e-1	8.711533943e0
1.178722088e1	2.218296209e-1	-7.855067062e0	6.215707183e-2	7.858444530e0
1.179720188e1	-4.843855374e-2	-6.722693524e0	-7.396610856e-2	6.723274909e0
1.180718288e1	-2.402529549e-1	-5.309076515e0	2.162943542e-2	5.314553863e0
1.181716287e1	-5.890570564e-1	-3.718995801e0	-1.780158493e-1	3.769563320e0
1.182714388e1	-8.599087831e-1	-2.010414829e0	2.790902343e-1	2.204337147e0
1.183712488e1	-1.089644863e0	-3.462966692e-1	1.370707071e0	1.784960835e0
1.184710588e1	-1.347076133e0	1.616965628e0	2.020410351e0	2.917404658e0
1.185708688e1	-1.395437577e0	3.836272820e0	1.978076510e0	4.536190237e0
1.186706787e1	-4.945479982e-1	6.122348784e0	1.307523813e0	6.279916470e0
1.187704888e1	1.239504761e0	8.500630660e0	1.191286866e-1	8.591349447e0
1.188702988e1	2.831441090e0	1.071510221e1	-1.088441944e0	1.113621030e1
1.189701087e1	3.695128636e0	1.230080394e1	-2.044868670e0	1.300558500e1
1.190699188e1	3.624897729e0	1.313153892e1	-2.862083131e0	1.392008325e1
1.191697287e1	2.827541581e0	1.313409298e1	-3.004299987e0	1.376681547e1
1.192695388e1	1.115412665e0	1.233924354e1	-2.626097401e0	1.266481204e1
1.193693488e1	-1.212576725e0	1.120040941e1	-2.306516660e0	1.149954488e1
1.194691587e1	-3.141938766e0	1.010671813e1	-2.394468431e0	1.085131373e1
1.195689688e1	-4.128616061e0	9.147561337e0	-2.629766236e0	1.037492262e1
1.196687787e1	-4.438207419e0	8.478734007e0	-2.217948592e0	9.823742230e0
1.197685888e1	-4.471611100e0	7.660719062e0	-9.025013638e-1	8.916077113e0
1.198683988e1	-3.813204385e0	6.568895965e0	6.744216540e-1	7.625337137e0
1.199682087e1	-2.644476954e0	5.061144632e0	1.960728991e0	6.037623830e0
1.200680188e1	-1.213241334e0	3.048402611e0	2.361664674e0	4.042545367e0
1.201678188e1	-1.042117086e-1	1.034444954e0	1.625572729e0	1.929617356e0
1.202676288e1	3.858057938e-1	-8.393397403e-1	7.967351729e-1	1.219886981e0
1.203674388e1	4.584702390e-1	-2.654762206e0	5.218879706e-1	2.744143652e0
1.204672487e1	3.050867541e-1	-4.558757125e0	4.918060926e-1	4.595347396e0
1.205670588e1	1.766358516e-1	-6.317446981e0	1.472220728e-1	6.321630401e0
1.206668688e1	2.631711897e-1	-7.689941692e0	-5.223224187e-1	7.712151646e0
1.207666788e1	6.711041632e-1	-8.816301368e0	-1.479871225e0	8.964796119e0
1.208664888e1	1.191391093e0	-9.524664647e0	-2.692736363e0	9.969427190e0
1.209662987e1	1.787893044e0	-9.923929489e0	-3.675839841e0	1.073278792e1
1.210661088e1	2.244588653e0	-1.034793682e1	-4.064539348e0	1.134188939e1
1.211659188e1	2.349957379e0	-1.054389807e1	-4.065212655e0	1.154218524e1
1.212657288e1	2.354977652e0	-1.040815145e1	-3.877972531e0	1.135403925e1
1.213655388e1	2.318406827e0	-1.016901436e1	-3.536933970e0	1.101334487e1
1.214653487e1	2.154043203e0	-9.925017071e0	-3.188268594e0	1.064476034e1
1.215651588e1	1.945377126e0	-9.504151445e0	-2.770360490e0	1.008901799e1
1.216649688e1	1.757834262e0	-8.914031146e0	-2.198546361e0	9.347916274e0
1.217647788e1	1.703302252e0	-8.302486063e0	-1.673502063e0	8.639046391e0
1.218645888e1	1.511697912e0	-7.657384980e0	-1.239267071e0	7.902946171e0
1.219643987e1	1.172010497e0	-7.185339260e0	-1.007391934e0	7.349663080e0
1.220641988e1	9.309307455e-1	-6.771975612e0	-8.100177079e-1	6.883488536e0
1.221640092e1	9.012319332e-1	-6.395297395e0	-5.671764100e-1	6.483343030e0
1.222638192e1	7.257252704e-1	-6.125968210e0	-2.584978026e-1	6.174219367e0
1.223636292e1	6.576549824e-1	-6.042281106e0	3.864804894e-2	6.078088902e0
1.224634392e1	7.026629017e-1	-5.705202572e0	1.747165579e-1	5.750964912e0
1.225632492e1	5.249792473e-1	-5.340457352e0	1.575245744e-1	5.368510216e0
1.226630592e1	4.281432896e-1	-5.302986640e0	8.061614692e-2	5.320852652e0
1.227628692e1	5.560707933e-1	-5.078302701e0	5.949892759e-2	5.109003149e0
1.228626792e1	3.904498717e-1	-4.414821480e0	1.209882474e-1	4.433704767e0
1.229624892e1	1.794988494e-1	-3.383274406e0	1.865372890e-1	3.393163966e0
1.230622992e1	-1.578631282e-2	-2.078043725e0	2.147246692e-1	2.089167684e0
1.231621092e1	2.778725517e-1	-2.024545795e-1	2.560010415e-1	4.286461769e-1
1.232619192e1	1.091062228e0	2.246451137e0	2.050612682e-1	2.505795207e0
1.233617292e1	9.733130457e-1	5.004395065e0	1.925663531e-1	5.101802627e0
1.234615392e1	2.379943947e-1	6.474935303e0	-4.030991533e-1	6.491834674e0
1.235613492e1	2.732273774e0	1.974825166e0	-2.271557912e0	4.065123584e0
1.236611592e1	2.670368132e0	8.107901251e-1	-2.522371303e0	3.761728802e0
1.237609692e1	-2.173733994e0	6.447156935e0	7.858362553e-1	6.848977343e0
1.238607792e1	-5.036489847e0	1.099183689e1	3.388206532e0	1.255653820e1
1.239605892e1	-1.038130571e1	1.493727372e1	8.095929662e0	1.991074412e1
1.240603992e1	-2.140615130e1	1.869992775e1	1.511934549e1	3.219480113e1
1.241601992e1	-1.373142933e1	1.104255330e1	2.102125950e1	2.742960966e1
1.242600092e1	-4.329702100e0	7.802540354e0	1.937344864e1	2.132970859e1
1.243598192e1	-4.830570207e0	1.212059275e1	1.550947756e1	2.026788276e1
1.244596292e1	-3.235770205e0	1.315728538e1	8.469818757e0	1.597880462e1
1.245594392e1	-2.639731354e-1	1.279500593e1	2.313092439e0	1.300508574e1
1.246592492e1	-1.225814382e0	1.409005895e1	2.244810993e0	1.432031977e1
1.247590592e1	-7.007273417e0	1.551737130e1	5.654466866e0	1.794055987e1
1.248588692e1	-9.789240046e0	1.289975061e1	5.382658462e0	1.706475311e1
1.249586792e1	-9.778902168e0	1.016585453e1	3.940361445e0	1.464574936e1
1.250584892e1	-7.717738186e0	9.010474536e0	2.235592858e0	1.207269686e1
1.251582992e1	-6.899375331e0	1.068776998e1	2.771360364e0	1.301961003e1
1.252581092e1	-2.950466427e0	1.180312871e1	2.885795929e0	1.250387610e1
1.253579192e1	8.806145047e-1	1.152759855e1	2.703412502e0	1.187305560e1
1.254577292e1	1.368814181e0	9.870670710e0	2.207954823e0	1.020680445e1
1.255575392e1	1.576234508e0	7.438618423e0	1.949283066e0	7.849666473e0
1.256573492e1	1.310539368e0	4.859744890e0	2.179133897e0	5.484820724e0
1.257571592e1	1.098356045e0	1.971827883e0	2.525713572e0	3.387288038e0
1.258569692e1	2.448683815e-1	4.358292353e-1	1.244257085e0	1.340926300e0
1.259567792e1	-1.230421696e0	-1.436686029e0	1.108478306e0	2.192425244e0
1.260565892e1	-1.374380730e0	-3.634857291e0	1.358942619e0	4.116774825e0
1.261563992e1	-8.113734580e-1	-5.446279677e0	2.913021735e0	6.229444986e0
1.262561992e1	-1.886590609e-1	-6.720464566e0	3.545536686e0	7.600728032e0
1.263560092e1	5.221374274e-1	-7.675983803e0	2.510859598e0	8.093069304e0
1.264558192e1	1.753259547e0	-7.362225720e0	-4.152663320e-1	7.579494225e0
1.265556292e1	1.761578673e0	-7.279534981e0	-4.642111523e0	8.811582625e0
1.266554392e1	1.291713380e0	-7.978143350e0	-6.560497025e0	1.040958289e1
1.267552492e1	1.709806987e0	-8.183256074e0	-7.176001841e0	1.101744627e1
1.268550592e1	2.009055497e0	-8.242611744e0	-6.726354466e0	1.082685535e1
1.269548692e1	2.060862120e0	-8.688034506e0	-6.424057510e0	1.099989142e1
1.270546792e1	2.307813134e0	-9.071351067e0	-5.748479569e0	1.098455411e1
1.271544892e1	2.676285222e0	-9.097171787e0	-4.920190482e0	1.068313210e1
1.272542992e1	3.182231052e0	-9.009234341e0	-4.473713759e0	1.055021387e1
1.273541092e1	3.261517834e0	-8.926371109e0	-4.457384532e0	1.049694606e1
1.274539192e1	2.730087208e0	-9.127148123e0	-4.712156489e0	1.062838783e1
1.275537292e1	2.790215880e0	-1.045658511e1	-4.871420025e0	1.186828588e1
1.276535392e1	2.497466843e0	-9.511074548e0	-4.089071634e0	1.064980688e1
1.277533492e1	1.690816254e0	-8.307985954e0	-3.535142091e0	9.185789015e0
1.278531592e1	2.026787179e0	-8.960615913e0	-5.115115601e0	1.051498509e1
1.279529692e1	7.643878642e-1	-9.418099726e0	-4.691818703e0	1.054978929e1
1.280527792e1	-8.584136501e-2	-9.760754165e0	-3.568295804e0	1.039290265e1
1.281525792e1	-1.482264417e-1	-1.037203905e1	-3.388413523e0	1.091249336e1
1.282523892e1	-6.705652691e-1	-1.102942513e1	-3.516928599e0	1.159597617e1
1.283521992e1	-6.014770541e-1	-1.085300528e1	-3.432326405e0	1.139870005e1
1.284520092e1	2.122705927e-1	-9.822565666e0	-3.262789019e0	1.035247059e1
1.285518192e1	1.044523654e0	-9.043016630e0	-3.254802307e0	9.667518683e0
1.286516292e1	1.608575896e0	-8.564393377e0	-3.070299264e0	9.239214680e0
1.287514392e1	1.617852358e0	-8.752383115e0	-2.901080551e0	9.361512955e0
1.288512492e1	7.520204915e-1	-9.323682396e0	-3.051221554e0	9.839031518e0
1.289510592e1	7.486943029e-2	-9.747803167e0	-3.125505751e0	1.023689690e1
1.290508692e1	-6.222299919e-2	-9.597685261e0	-2.963236746e0	1.004490946e1
1.291506792e1	-1.069579996e-2	-9.173880240e0	-2.734861751e0	9.572860693e0
1.292504892e1	-1.459574662e-2	-8.964070448e0	-2.222989477e0	9.235607952e0
1.293502992e1	1.009484506e-1	-8.965450391e0	-1.752850242e0	9.135752583e0
1.294501092e1	4.144230904e-1	-8.697018169e0	-1.637960348e0	8.859615433e0
1.295499192e1	5.290602384e-1	-8.089525207e0	-1.797209851e0	8.303630896e0
1.296497292e1	5.414189134e-1	-7.195936169e0	-1.672197842e0	7.407487929e0
1.297495392e1	3.085096228e-1	-6.234702448e0	-1.116144883e0	6.341330475e0
1.298493492e1	-2.631627478e-1	-4.953990896e0	-1.211867604e-1	4.962455709e0
1.299491592e1	-7.142847544e-1	-3.419661044e0	1.388016437e0	3.759105478e0
1.300489592e1	-9.720523860e-1	-1.848056361e0	2.218925662e0	3.046937683e0
1.301487692e1	-1.117676853e0	5.791550159e-2	2.170475048e0	2.442031467e0
1.302485792e1	-1.039944334e0	3.042793377e0	1.285423238e0	3.463002838e0
1.303483892e1	-6.075892948e-2	6.791825155e0	-7.201059499e-1	6.830163480e0
1.304481992e1	6.998663977e-1	1.175035174e1	-3.543235515e0	1.229288806e1
1.305480092e1	6.482236429e-1	1.659467284e1	-5.507002426e0	1.749658356e1
1.306478192e1	-6.037338235e-1	2.004812611e1	-4.914844957e0	2.065060668e1
1.307476292e1	-2.587227450e0	2.233061013e1	-1.090523992e0	2.250642436e1
1.308474392e1	-4.260516382e0	2.500002780e1	5.398337186e0	2.592866048e1
1.309472492e1	-4.919889350e0	2.860295812e1	1.173913795e1	3.130721777e1
1.310470592e1	-4.805099443e0	3.179567353e1	1.438962584e1	3.522946448e1
1.311468692e1	-3.116851872e0	3.461215802e1	1.326526240e1	3.719789557e1
1.312466792e1	6.591053843e-1	3.674041120e1	1.182479615e1	3.860204709e1
1.313464892e1	3.801716653e0	3.692400208e1	1.169812675e1	3.891890477e1
1.314462992e1	3.643567888e0	3.396828602e1	1.236649390e1	3.633249529e1
1.315461092e1	1.312195299e0	2.943445324e1	1.315960906e1	3.226893560e1
1.316459192e1	-5.040614911e-1	2.507423598e1	1.334414485e1	2.840840703e1
1.317457292e1	-1.848195525e0	2.077727157e1	1.247760971e1	2.430641036e1
1.318455392e1	-3.938787667e0	1.657871345e1	1.065191135e1	2.009554685e1
1.319453392e1	-5.728441746e0	1.235541226e1	7.751059713e0	1.567004096e1
1.320451492e1	-6.490454398e0	8.428447368e0	5.022199252e0	1.176380927e1
1.321449587e1	-6.402902284e0	4.790481697e0	2.179678127e0	8.288357454e0
1.322447688e1	-5.940663514e0	1.829044724e0	-1.394799207e0	6.370427962e0
1.323445788e1	-4.844183695e0	-9.996054894e-1	-4.623054278e0	6.770373524e0
1.324443888e1	-3.700526785e0	-3.233113815e0	-6.103179272e0	7.835542141e0
1.325441988e1	-2.892205355e0	-5.590713505e0	-6.467683586e0	9.025068436e0
1.326440087e1	-1.227141847e0	-7.807898158e0	-5.496430076e0	9.627039749e0
1.327438188e1	4.099431365e-1	-9.797336685e0	-3.363457607e0	1.036671146e1
1.328436288e1	1.238036671e0	-1.162119961e1	-1.250320794e0	1.175365123e1
1.329434388e1	1.626927529e0	-1.299827853e1	-7.952447176e-2	1.309994130e1
1.330432488e1	2.043153681e0	-1.385775375e1	-2.738933752e-1	1.401024031e1
1.331430587e1	2.452401767e0	-1.419940188e1	-1.731809036e0	1.451331977e1
1.332428688e1	3.115571916e0	-1.403901509e1	-3.466963264e0	1.479258488e1
1.333426788e1	3.806029267e0	-1.350426383e1	-4.945022437e0	1.487629817e1
1.334424888e1	3.693825584e0	-1.289706791e1	-5.792874554e0	1.461287459e1
1.335422988e1	3.028021848e0	-1.251302746e1	-5.602332507e0	1.404033127e1
1.336421087e1	2.406891426e0	-1.212554418e1	-4.764905975e0	1.324863302e1
1.337419188e1	1.407109204e0	-1.166627579e1	-3.703788362e0	1.232071408e1
1.338417288e1	1.688964952e-1	-1.139967550e1	-2.632300127e0	1.170086029e1
1.339415288e1	-9.167156526e-1	-1.111650771e1	-1.769421251e0	1.129371342e1
1.340413388e1	-1.611909540e0	-1.064893862e1	-1.026198626e0	1.081902166e1
1.341411487e1	-1.559915222e0	-9.994844520e0	-3.551430680e-1	1.012207385e1
1.342409588e1	-8.287613963e-1	-9.290318184e0	3.145958434e-1	9.332514557e0
1.343407688e1	-1.603486699e-1	-8.692007689e0	1.071955866e0	8.759326387e0
1.344405787e1	-3.327496938e-2	-8.313917955e0	1.498364798e0	8.447924955e0
1.345403888e1	-8.428194914e-2	-8.144656849e0	1.645286617e0	8.309603281e0
1.346401987e1	-8.912070282e-2	-7.990641189e0	1.667258114e0	8.163212525e0
1.347400088e1	-3.979837898e-2	-7.782104920e0	1.536407953e0	7.932420204e0
1.348398188e1	3.640761517e-2	-7.603513412e0	1.336407450e0	7.720150685e0
1.349396287e1	1.281429736e-1	-7.483670635e0	1.016335543e0	7.553455151e0
1.350394388e1	4.585264089e-1	-7.466521921e0	6.984917173e-1	7.513127627e0
1.351392487e1	6.995730867e-1	-7.507292801e0	6.804216282e-1	7.570457139e0
1.352390588e1	7.309793591e-1	-7.613581148e0	7.278226666e-1	7.683142232e0
1.353388688e1	5.047139307e-1	-7.819683806e0	4.036305191e-1	7.846343643e0
1.354386787e1	1.073635771e-1	-7.968894224e0	-1.806368637e-1	7.971664304e0
1.355384888e1	-1.022732470e-1	-8.170263560e0	-7.854149634e-1	8.208565230e0
1.356382987e1	-1.612699170e-1	-8.470407572e0	-1.363290755e0	8.580930841e0
1.357381088e1	-3.164818263e-2	-8.646688845e0	-1.794680638e0	8.831030980e0
1.358379088e1	2.192036729e-1	-8.844049330e0	-1.982614680e0	9.066202059e0
1.359377187e1	1.067915184e-1	-9.167868133e0	-2.048517040e0	9.394553347e0
1.360375288e1	-2.101527678e-1	-9.673389162e0	-2.247187155e0	9.933200500e0
1.361373388e1	-6.886138697e-1	-1.001124362e1	-2.398948275e0	1.031766159e1
1.362371488e1	-9.688845107e-1	-1.032059758e1	-2.502010714e0	1.066365459e1
1.363369588e1	-1.105232955e0	-1.073543180e1	-2.407363588e0	1.105741540e1
1.364367687e1	-1.398848112e0	-1.105942135e1	-2.014096820e0	1.132802554e1
1.365365788e1	-1.184119057e0	-1.132045509e1	-1.923493629e0	1.154359862e1
1.366363888e1	-5.900902228e-1	-1.139635545e1	-2.264699128e0	1.163417321e1
1.367361988e1	-4.364557279e-1	-1.134942687e1	-2.477832477e0	1.162495753e1
1.368360088e1	-3.000039706e-1	-1.128721717e1	-2.527417451e0	1.157061420e1
1.369358187e1	6.304747943e-2	-1.118861441e1	-2.324854698e0	1.142777392e1
1.370356288e1	1.609527969e-1	-1.100460370e1	-2.018353593e0	1.118932347e1
1.371354388e1	4.226988740e-3	-1.069576429e1	-1.847828320e0	1.085420938e1
1.372352488e1	-4.011587822e-2	-1.035993765e1	-1.778199091e0	1.051151318e1
1.373350588e1	3.912973617e-2	-9.468089327e0	-1.771784111e0	9.632521247e0
1.374348687e1	-2.153769809e-2	-8.072275921e0	-2.138503350e0	8.350766371e0
1.375346788e1	-3.026457791e-1	-6.270096229e0	-2.671699251e0	6.822292728e0
1.376344888e1	-3.752188982e-1	-3.538447815e0	-2.075693729e0	4.119454650e0
1.377342887e1	5.708106007e-1	-2.830151778e-1	-1.043440384e0	1.222575220e0
1.378340988e1	1.815915532e0	3.489811260e0	1.286767147e-1	3.936100805e0
1.379339087e1	2.556785384e0	7.562412749e0	2.011548604e0	8.232470217e0
1.380337188e1	2.682104956e0	1.043050886e1	4.015396425e0	1.149402500e1
1.381335288e1	2.195127202e0	1.326293989e1	4.931883743e0	1.431948446e1
1.382333387e1	4.563852316e-1	1.792313334e1	2.882169778e0	1.815912715e1
1.383331488e1	-1.270781225e0	2.310555566e1	-3.425410026e-1	2.314301021e1
1.384329587e1	-1.322186144e0	2.790531981e1	-2.239104111e0	2.802621339e1
1.385327688e1	-1.867231391e-1	3.137981019e1	-2.676795099e0	3.149432624e1
1.386325788e1	1.008748854e0	3.242143319e1	-1.498602634e0	3.247172176e1
1.387323887e1	7.169482342e-1	3.195952888e1	1.225101461e0	3.199103585e1
1.388321988e1	-1.270128091e0	3.081068900e1	4.543894672e0	3.116983735e1
1.389320088e1	-2.555974959e0	3.083062099e1	8.813559024e0	3.216735956e1
1.390318188e1	-1.125165675e0	3.176446810e1	1.150891202e1	3.380388273e1
1.391316288e1	1.649575257e0	3.283939450e1	1.132317521e1	3.477587133e1
1.392314387e1	3.820283609e0	3.358520452e1	1.061354426e1	3.542891264e1
1.393312488e1	3.707600454e0	3.280927199e1	9.554529301e0	3.437271679e1
1.394310588e1	2.212690337e0	3.043446277e1	8.533468038e0	3.168552666e1
1.395308588e1	1.345828191e0	2.717445995e1	8.759916083e0	2.858318836e1
1.396306688e1	1.318356072e0	2.397172008e1	9.095003639e0	2.567295304e1
1.397304787e1	2.552171857e-1	2.037931241e1	8.343352253e0	2.202255745e1
1.398302888e1	-2.263913554e0	1.600915021e1	7.313407901e0	1.774553831e1
1.399300988e1	-3.532304437e0	1.183110295e1	6.114401248e0	1.377817384e1
1.400299088e1	-2.971773388e0	7.972261051e0	4.688546602e0	9.714466149e0
1.401297188e1	-9.315221183e-1	4.446363115e0	2.439599873e0	5.156503268e0
1.402295287e1	1.732992074e0	1.442561896e0	-6.592484949e-1	2.349224325e0
1.403293388e1	3.282298546e0	-1.544213401e0	-3.731999424e0	5.204411443e0
1.404291488e1	3.052505018e0	-4.829745165e0	-5.777572390e0	8.125550318e0
1.405289588e1	2.172257718e0	-7.908343382e0	-6.262132906e0	1.031866790e1
1.406287688e1	6.447810946e-1	-1.074639416e1	-5.148787962e0	1.193359743e1
1.407285787e1	-1.019739719e0	-1.370474615e1	-3.543168272e0	1.419203923e1
1.408283888e1	-1.229287629e0	-1.675100049e1	-6.700622624e-1	1.680940656e1
1.409281988e1	-2.793866151e-1	-1.965306016e1	1.742192522e0	1.973210747e1
1.410280087e1	1.614166419e0	-2.128428364e1	2.333985125e0	2.147262792e1
1.411278188e1	3.580588113e0	-2.153074144e1	7.860663432e-1	2.184058924e1
1.412276287e1	4.605401534e0	-2.059377658e1	-2.228783775e0	2.121982173e1
1.413274388e1	4.482773142e0	-1.872078243e1	-4.908170360e0	1.986587743e1
1.414272388e1	3.861555596e0	-1.715289132e1	-6.562185701e0	1.876687436e1
1.415270487e1	2.744628941e0	-1.592446732e1	-7.147234125e0	1.766931247e1
1.416268588e1	1.365689721e0	-1.472184826e1	-6.972170243e0	1.634653121e1
1.417266688e1	-3.255019969e-1	-1.347474943e1	-6.892977893e0	1.513895531e1
1.418264788e1	-2.415581557e0	-1.234002940e1	-7.031044103e0	1.440648955e1
1.419262888e1	-4.366703573e0	-1.143499619e1	-6.704743157e0	1.395638989e1
1.420260987e1	-5.168348653e0	-1.061717888e1	-5.438036272e0	1.300032899e1
1.421259067e1	-4.894987520e0	-9.709009230e0	-3.194717488e0	1.133278355e1
1.422257167e1	-3.972297475e0	-8.596448983e0	-9.711834897e-1	9.519520982e0
1.423255267e1	-2.384854732e0	-7.574516485e0	6.109077358e-1	7.964548973e0
1.424253367e1	-5.530605736e-1	-6.470727062e0	1.558314546e0	6.678662211e0
1.425251467e1	8.867690646e-1	-5.464633502e0	1.996118825e0	5.884986750e0
1.426249567e1	1.590382431e0	-4.857478509e0	2.033425815e0	5.500839417e0
1.427247667e1	1.657532733e0	-4.772388657e0	1.874548780e0	5.388602916e0
1.428245767e1	1.406128626e0	-4.899564428e0	1.754402093e0	5.390812184e0
1.429243867e1	9.719396809e-1	-5.001655644e0	1.553252612e0	5.326708139e0
1.430241967e1	4.664303095e-1	-5.241400841e0	1.053846893e0	5.366603515e0
1.431240067e1	2.158886853e-1	-5.476037911e0	6.367810804e-1	5.517163155e0
1.432238167e1	-1.233360507e-3	-5.698337941e0	5.186035895e-1	5.721888367e0
1.433236167e1	-2.831529894e-1	-6.161580092e0	4.273570584e-1	6.182869795e0
1.434234267e1	-5.800367395e-1	-6.619304811e0	3.148067817e-1	6.652123128e0
1.435232367e1	-5.324475669e-1	-6.931896375e0	1.032453100e-1	6.953081861e0
1.436230467e1	-8.199386057e-2	-7.204433928e0	-2.371632130e-1	7.208802785e0
1.437228567e1	3.929575232e-1	-7.342930493e0	-6.236581743e-1	7.379836946e0
1.438226667e1	7.477473463e-1	-7.444272096e0	-1.003196849e0	7.548689757e0
1.439224767e1	8.293442906e-1	-7.702558229e0	-1.460560941e0	7.883555891e0
1.440222867e1	6.652438644e-1	-8.244903268e0	-1.869182497e0	8.480260757e0
1.441220967e1	3.427456917e-1	-8.860213373e0	-2.054284734e0	9.101699917e0
1.442219067e1	-1.357829821e-1	-9.418889685e0	-2.011149970e0	9.632167156e0
1.443217167e1	-5.132455666e-1	-9.943352770e0	-1.789803037e0	1.011617913e1
1.444215267e1	-8.176916669e-1	-1.041625803e1	-1.556696183e0	1.056363356e1
1.445213367e1	-8.137665041e-1	-1.081784714e1	-1.265508791e0	1.092197533e1
1.446211467e1	-5.561454184e-1	-1.095280555e1	-9.886988242e-1	1.101139286e1
1.447209567e1	-2.954921676e-1	-1.064147640e1	-6.364396030e-1	1.066458584e1
1.448207667e1	3.857910661e-2	-1.050995849e1	-2.934979199e-1	1.051412654e1
1.449205767e1	2.497887769e-1	-1.056009252e1	-1.456440555e-1	1.056405039e1
1.450203867e1	2.603115724e-1	-1.053584528e1	2.051174015e-1	1.054105645e1
1.451201867e1	6.269462098e-1	-1.053025418e1	6.631340428e-1	1.056972381e1
1.452199967e1	1.166218903e0	-1.003623579e1	9.524487915e-1	1.014855921e1
1.453198067e1	1.563882265e0	-9.034480864e0	1.081615028e0	9.232413731e0
1.454196167e1	1.625400675e0	-8.037863302e0	1.382605131e0	8.316295495e0
1.455194267e1	9.450328410e-1	-7.048925473e0	1.885571512e0	7.357704623e0
1.456192367e1	3.381883353e-1	-5.608801281e0	2.031730707e0	5.975027434e0
1.457190467e1	7.516945823e-1	-3.474893258e0	1.816518819e0	3.992451442e0
1.458188567e1	3.928239418e-2	2.460215986e-2	1.880037122e0	1.880608400e0
1.459186667e1	-2.380951715e0	4.161819475e0	8.673268533e-1	4.872568962e0
1.460184767e1	-5.416374092e0	8.357119523e0	-1.270591775e0	1.003956964e1
1.461182867e1	-7.265117501e0	1.211633832e1	-3.021154001e0	1.444697055e1
1.462180967e1	-6.424563294e0	1.514158713e1	-2.900886131e0	1.670203025e1
1.463179067e1	-4.055552178e0	1.832776768e1	-1.094107604e0	1.880296900e1
1.464177167e1	-1.890853302e0	2.121752013e1	5.271767771e-1	2.130812995e1
1.465175267e1	4.321652969e-1	2.267761431e1	1.018030504e0	2.270456659e1
1.466173367e1	2.450968029e0	2.333318542e1	8.703248669e-1	2.347769690e1
1.467171467e1	3.242842412e0	2.319137173e1	2.014300011e-1	2.341786335e1
1.468169567e1	2.391130256e0	2.232447289e1	-7.406377168e-1	2.246437487e1
1.469167667e1	8.800766339e-1	2.121283534e1	-6.889226027e-1	2.124225817e1
1.470165667e1	1.005651931e-1	2.013907137e1	1.118019354e0	2.017033158e1
1.471163767e1	-7.336791647e-1	1.958298362e1	4.683070684e0	2.014851566e1
1.472161867e1	-7.698207316e-1	1.920006934e1	9.496921948e0	2.143424394e1
1.473159967e1	2.921172461e-1	1.891254187e1	1.434486423e1	2.373909649e1
1.474158067e1	2.048482834e0	1.898303122e1	1.774294203e1	2.606460720e1
1.475156167e1	3.498192951e0	1.914362149e1	1.845783548e1	2.682176893e1
1.476154267e1	4.134532859e0	1.873221491e1	1.611631213e1	2.505445577e1
1.477152367e1	3.971376246e0	1.840994796e1	1.152328213e1	2.207904083e1
1.478150467e1	4.110361346e0	1.829270076e1	6.304853833e0	1.978052460e1
1.479148567e1	4.157280574e0	1.801150348e1	1.192062353e0	1.852345141e1
1.480146667e1	3.861965778e0	1.734540271e1	-2.751966319e0	1.798196578e1
1.481144767e1	3.907140489e0	1.584342725e1	-4.514572055e0	1.693107482e1
1.482142867e1	4.718456279e0	1.350396796e1	-3.782604151e0	1.479625205e1
1.483140967e1	6.026655006e0	1.106311913e1	-1.849556903e0	1.273318641e1
1.484139067e1	6.434093671e0	8.466978180e0	-5.969073088e-1	1.065098959e1
1.485137167e1	4.446380657e0	5.016883548e0	-5.507901728e-2	6.703913423e0
1.486135267e1	9.541021648e-1	1.381528074e0	-2.654577434e-2	1.679177012e0
1.487133367e1	-3.280723014e0	-1.619336674e0	-3.786864433e-1	3.678151462e0
1.488131367e1	-6.069448439e0	-3.984589784e0	-6.995851466e-1	7.294146933e0
1.489129467e1	-6.370471287e0	-5.298452125e0	-6.152378914e-1	8.308731371e0
1.490127567e1	-5.264983832e0	-6.718949552e0	-7.255119932e-1	8.566837543e0
1.491125667e1	-3.469054229e0	-7.824865023e0	-1.565798105e0	8.701412160e0
1.492123767e1	-1.745880945e0	-8.497520526e0	-2.715487295e0	9.090094973e0
1.493121867e1	-1.923534413e-1	-9.230094202e0	-3.926497697e0	1.003239867e1
1.494119967e1	1.056564167e0	-9.982758325e0	-4.648290861e0	1.106247710e1
1.495118067e1	1.902332848e0	-1.086105456e1	-5.522587010e0	1.233208594e1
1.496116167e1	2.064522916e0	-1.137687604e1	-5.921143754e0	1.299059301e1
1.497114267e1	2.477813181e0	-1.146461234e1	-5.121384401e0	1.279865120e1
1.498112367e1	3.117752343e0	-1.132635142e1	-3.690356138e0	1.231362435e1
1.499110467e1	3.335814895e0	-1.113685719e1	-2.692246367e0	1.193337503e1
1.500108567e1	2.733949586e0	-1.089890007e1	-2.051578642e0	1.142232367e1
1.501106667e1	1.684679309e0	-1.063194310e1	-1.633161830e0	1.088777186e1
1.502104767e1	8.863569821e-1	-1.045323582e1	-1.444194146e0	1.058968671e1
1.503102867e1	6.100160354e-1	-1.015152066e1	-1.313729316e0	1.025433450e1
1.504100967e1	3.212379880e-1	-9.807009149e0	-1.538248072e0	9.932111026e0
1.505099067e1	-6.584673800e-2	-9.413924230e0	-1.771982624e0	9.579469067e0
1.506097167e1	-1.730620151e-1	-8.978996635e0	-1.455153582e0	9.097791105e0
1.507095167e1	1.498312466e-2	-8.690642949e0	-8.856461799e-1	8.735666461e0
1.508093267e1	4.335673861e-2	-8.647500438e0	-6.437100309e-1	8.671534249e0
1.509091367e1	4.622918330e-2	-8.606640095e0	-5.857781571e-1	8.626675311e0
1.510089467e1	1.536402690e-1	-8.408874398e0	-6.052254117e-1	8.432026552e0
1.511087567e1	5.317550008e-1	-8.230557125e0	-5.077303997e-1	8.263330087e0
1.512085667e1	1.197895536e0	-8.185002637e0	-1.402700257e-1	8.273384891e0
1.513083767e1	1.378349674e0	-8.143708431e0	-1.370338842e-1	8.260666626e0
1.514081867e1	1.316299460e0	-7.998771157e0	-4.168529740e-1	8.117065399e0
1.515079967e1	1.483711091e0	-7.723881270e0	-6.329333201e-1	7.890522484e0
1.516078067e1	1.717299170e0	-7.568444152e0	-9.500643700e-1	7.818764968e0
1.517076167e1	1.833417564e0	-7.652389703e0	-1.279028869e0	7.972226978e0
1.518074267e1	1.855511853e0	-7.817585825e0	-1.416070062e0	8.158604463e0
1.519072367e1	1.902824160e0	-8.022910218e0	-1.504977122e0	8.381693402e0
1.520070467e1	1.999500416e0	-8.285881140e0	-1.600316851e0	8.672649088e0
1.521068492e1	1.966540100e0	-8.607354625e0	-1.726414103e0	8.996351441e0
1.522066592e1	1.844327007e0	-9.127087896e0	-1.796157644e0	9.483219805e0
1.523064692e1	1.781506861e0	-9.516938721e0	-1.802846274e0	9.848662041e0
1.524062792e1	1.823908238e0	-9.836153426e0	-1.923732926e0	1.018711460e1
1.525060792e1	1.824943487e0	-9.991711582e0	-1.943832145e0	1.034133466e1
1.526058892e1	1.571538317e0	-1.015364554e1	-2.034051613e0	1.047394942e1
1.527056992e1	1.449163841e0	-1.033402279e1	-2.387101378e0	1.070468850e1
1.528055092e1	1.490887818e0	-1.009574290e1	-2.538242401e0	1.051615166e1
1.529053192e1	1.491566241e0	-9.687608421e0	-2.987270556e0	1.024686841e1
1.530051292e1	1.439479244e0	-9.094796648e0	-3.228837161e0	9.757705467e0
1.531049392e1	1.081753461e0	-8.096120281e0	-3.211069227e0	8.776577906e0
1.532047492e1	7.156771957e-1	-6.844267663e0	-3.490466148e0	7.716187376e0
1.533045592e1	4.388807510e-1	-5.312253308e0	-3.985563930e0	6.655627045e0
1.534043692e1	8.882081375e-2	-3.563977928e0	-4.238647796e0	5.538588533e0
1.535041792e1	-2.051758736e-2	-1.646523303e0	-3.676794106e0	4.028681529e0
1.536039892e1	1.826190698e-1	4.261626184e-2	-2.413657531e0	2.420931339e0
1.537037992e1	-1.126445630e-1	1.831466641e0	-7.812675333e-1	1.994326406e0
1.538036092e1	-4.748642237e-1	3.483684547e0	9.138367760e-1	3.632719602e0
1.539034192e1	-4.949532102e-1	5.108721086e0	2.400737962e0	5.666352670e0
1.540032292e1	-2.866824053e-1	7.229013283e0	2.541437320e0	7.668097776e0
1.541030392e1	-5.333420813e-1	9.651860883e0	8.753223360e-1	9.706135249e0
1.542028492e1	-1.600822342e0	1.222809147e1	-1.417124900e0	1.241358515e1
1.543026492e1	-3.278292619e0	1.474287134e1	-3.265260637e0	1.545190554e1
1.544024592e1	-5.000114903e0	1.638446427e1	-3.826567027e0	1.755261900e1
1.545022692e1	-6.570351337e0	1.717966689e1	-2.088496208e0	1.851140966e1
1.546020792e1	-7.857930443e0	1.789214076e1	1.190880631e0	1.957789489e1
1.547018892e1	-8.204437028e0	1.887610319e1	5.001277914e0	2.118095464e1
1.548016992e1	-7.618881649e0	1.942042517e1	8.669363177e0	2.259110731e1
1.549015092e1	-6.510967600e0	1.934414357e1	1.106083403e1	2.321487969e1
1.550013192e1	-5.019411299e0	1.905172548e1	1.227992002e1	2.321549417e1
1.551011292e1	-3.463396463e0	1.882171005e1	1.299633960e1	2.313345472e1
1.552009392e1	-2.002652211e0	1.878391950e1	1.283328765e1	2.283723975e1
1.553007492e1	-9.217917667e-1	1.865020654e1	1.125307294e1	2.180164110e1
1.554005592e1	-7.680107260e-1	1.822349545e1	8.839200819e0	2.026862349e1
1.555003692e1	-1.455672084e0	1.749301216e1	6.412361909e0	1.868804005e1
1.556001792e1	-1.877974371e0	1.652848119e1	4.556841870e0	1.724767480e1
1.556999892e1	-2.198687133e0	1.515115785e1	3.730682923e0	1.575784898e1
1.557997992e1	-2.834111221e0	1.351025723e1	3.644149101e0	1.427722170e1
1.558996092e1	-3.234934053e0	1.152192324e1	3.592669922e0	1.249507065e1
1.559994192e1	-3.537593536e0	9.937276343e0	3.562322288e0	1.113347067e1
1.560992192e1	-3.042699237e0	8.669896443e0	3.294508117e0	9.761091472e0
1.561990292e1	-1.949360688e0	7.851227195e0	2.804288374e0	8.561881151e0
1.562988392e1	-1.388618993e0	6.930285468e0	1.789308070e0	7.291004234e0
1.563986492e1	-1.381414346e0	5.616197425e0	3.333323689e-1	5.793193383e0
1.564984592e1	-1.371739543e0	4.205999283e0	-1.251335725e0	4.597601596e0
1.565982692e1	-1.262160236e0	2.520078025e0	-2.703477114e0	3.905461589e0
1.566980792e1	-1.827315702e0	8.877441609e-1	-3.635615090e0	4.164717212e0
1.567978892e1	-2.686586847e0	-4.823239553e-1	-3.627848818e0	4.540007966e0
1.568976992e1	-2.039665233e0	-1.286579232e0	-2.032339110e0	3.153715688e0
1.569975092e1	1.324625310e-1	-1.647586911e0	-5.492190260e-1	1.741760744e0
1.570973192e1	2.258945614e0	-2.097719021e0	-8.244457126e-2	3.083838109e0
1.571971292e1	3.555344514e0	-2.634757127e0	-1.709891041e-1	4.428505053e0
1.572969392e1	3.906057877e0	-3.125418627e0	-5.343162274e-1	5.031006218e0
1.573967492e1	3.836547639e0	-3.827609586e0	-6.688820019e-1	5.460503279e0
1.574965592e1	3.108496785e0	-4.770000654e0	-2.603659880e-1	5.699425318e0
1.575963692e1	2.116356728e0	-5.833751854e0	7.470122051e-1	6.250572272e0
1.576961792e1	1.164846488e0	-6.793691002e0	1.783540815e0	7.119840069e0
1.577959892e1	3.962820308e-1	-7.881242123e0	2.198308672e0	8.191677353e0
1.578957892e1	4.037180811e-2	-8.849525832e0	1.780726696e0	9.026999773e0
1.579955992e1	1.486069127e-1	-9.392814612e0	7.890877457e-1	9.427073237e0
1.580954092e1	6.096668836e-1	-9.729846368e0	-3.598306346e-1	9.755566726e0
1.581952192e1	1.456542881e0	-9.869120028e0	-1.316879504e0	1.006256523e1
1.582950292e1	2.179537648e0	-9.775186847e0	-1.979194352e0	1.020891143e1
1.583948392e1	2.500391912e0	-9.816333704e0	-2.401900388e0	1.041064324e1
1.584946492e1	2.200737313e0	-9.919340594e0	-2.438795881e0	1.044912857e1
1.585944592e1	1.619874033e0	-1.002814324e1	-1.929819001e0	1.033981867e1
1.586942692e1	1.188658324e0	-1.036408917e1	-1.342040657e0	1.051800010e1
1.587940792e1	7.171705015e-1	-1.041055349e1	-9.370515378e-1	1.047721447e1
1.588938892e1	5.040576173e-1	-1.043638882e1	-1.087323080e0	1.050497774e1
1.589936992e1	5.148504811e-1	-1.027884028e1	-1.561674356e0	1.040953674e1
1.590935092e1	4.311695892e-1	-9.965713692e0	-1.982153481e0	1.017006829e1
1.591933192e1	3.949330050e-1	-9.697538747e0	-2.359478400e0	9.988261518e0
1.592931292e1	5.501800890e-1	-9.422037826e0	-2.624344990e0	9.796156469e0
1.593929392e1	8.155711010e-1	-9.118552131e0	-2.770561050e0	9.564996483e0
1.594927492e1	1.132887508e0	-8.968602625e0	-2.743696017e0	9.447070180e0
1.595925592e1	1.134556303e0	-8.891331085e0	-2.387977145e0	9.276067125e0
1.596923692e1	8.024020019e-1	-8.988881938e0	-1.922633650e0	9.227153820e0
1.597921692e1	5.113557465e-1	-9.133456099e0	-1.503064352e0	9.270421105e0
1.598919792e1	4.237752002e-1	-9.222409791e0	-8.934022191e-1	9.275267937e0
1.599917892e1	6.278988674e-1	-9.226067224e0	-2.489137776e-1	9.250758427e0
1.600915992e1	8.728663592e-1	-9.043596089e0	1.721801819e-1	9.087253266e0
1.601914092e1	1.127263144e0	-8.985783498e0	3.638465023e-1	9.063520925e0
1.602912192e1	1.333414845e0	-8.852055922e0	3.427650972e-1	8.958480737e0
1.603910292e1	1.558476660e0	-8.825699598e0	2.188082184e-1	8.964914942e0
1.604908392e1	1.786584291e0	-8.957772412e0	1.613069920e-1	9.135622034e0
1.605906492e1	1.847459360e0	-9.141705936e0	2.447657628e-1	9.329726887e0
1.606904592e1	1.894128620e0	-9.449568272e0	1.713930005e-1	9.639058009e0
1.607902692e1	2.025574174e0	-9.881948819e0	-1.254742312e-1	1.008819146e1
1.608900792e1	2.021951385e0	-1.051810717e1	-4.186227800e-1	1.071886705e1
1.609898892e1	1.735737196e0	-1.123768541e1	-5.592325290e-1	1.138468700e1
1.610896992e1	1.177395344e0	-1.217772590e1	-1.112449735e0	1.228498320e1
1.611895092e1	1.003865771e0	-1.298379498e1	-1.668016937e0	1.312893595e1
1.612893192e1	6.771352737e-1	-1.347775957e1	-1.904567800e0	1.362849565e1
1.613891292e1	1.039068494e0	-1.387384061e1	-2.411235030e0	1.412009812e1
1.614889292e1	1.904371187e0	-1.328619543e1	-1.929016470e0	1.355989392e1
1.615887392e1	2.069806021e0	-1.189005575e1	-2.307912390e0	1.228755396e1
1.616885492e1	1.257665482e0	-9.425276014e0	-4.830464373e0	1.066540841e1
1.617883592e1	-3.466887251e-1	-5.622421201e0	-7.250049226e0	9.181232326e0
1.618881692e1	-3.045798261e0	-1.218766149e0	-8.663576188e0	9.263899305e0
1.619879792e1	-4.377480576e0	2.415256745e0	-8.210076667e0	9.612552222e0
1.620877892e1	-3.484393229e0	5.222644143e0	-4.252825540e0	7.583108406e0
1.621876042e1	-1.608622528e0	7.222453877e0	1.587021890e0	7.567704072e0
1.622874142e1	-7.974437092e-1	9.345445148e0	5.637398259e0	1.094319517e1
1.623872242e1	-1.169912370e0	1.207212168e1	6.752822472e0	1.388183806e1
1.624870342e1	-2.547876858e0	1.522782303e1	6.951760536e0	1.693237270e1
1.625868442e1	-4.067119725e0	1.809174365e1	6.047784505e0	1.950457250e1
1.626866542e1	-4.797640443e0	2.031877735e1	4.617438027e0	2.138202051e1
1.627864642e1	-5.161329070e0	2.168023135e1	3.716508980e0	2.259389715e1
1.628862742e1	-5.463201519e0	2.234141579e1	3.462400097e0	2.325884014e1
1.629860842e1	-5.380062883e0	2.249938183e1	3.408602205e0	2.338345202e1
1.630858942e1	-4.014787729e0	2.347633462e1	4.000215883e0	2.415074605e1
1.631857042e1	-2.020606526e0	2.477442819e1	5.539466168e0	2.546646477e1
1.632855042e1	4.804101616e-2	2.519672112e1	7.983957821e0	2.643143291e1
1.633853142e1	9.431212400e-1	2.451183207e1	1.150497918e1	2.709398337e1
1.634851242e1	-2.839963406e-2	2.299023687e1	1.532256313e1	2.762847695e1
1.635849342e1	-1.953277007e0	2.156410565e1	1.862325906e1	2.855961697e1
1.636847442e1	-2.736225615e0	2.038067598e1	1.982302468e1	2.856240871e1
1.637845542e1	-1.684814672e0	1.942983568e1	1.794819451e1	2.650461849e1
1.638843642e1	8.738619938e-2	1.874055772e1	1.371950569e1	2.322586868e1
1.639841742e1	9.289482471e-1	1.759794863e1	8.062495283e0	1.937923040e1
1.640839842e1	8.104859968e-1	1.615366999e1	2.627907699e0	1.638608680e1
1.641837942e1	-6.248027667e-2	1.422363976e1	-1.171446971e0	1.427193469e1
1.642836042e1	-1.059585277e0	1.198677455e1	-2.623215893e0	1.231611735e1
1.643834142e1	-1.968325401e0	9.336287239e0	-2.115932074e0	9.773317392e0
1.644832242e1	-2.903796583e0	6.288728381e0	-9.469752860e-1	6.991201716e0
1.645830342e1	-3.217513443e0	3.257327719e0	-2.075803949e-1	4.583193892e0
1.646828442e1	-2.708274170e0	9.112166387e-1	1.906823802e-1	2.863812932e0
1.647826542e1	-2.014339187e0	-7.370046955e-1	4.225177565e-1	2.186151765e0
