"Time (s)"	"Linear Acceleration x (m/s^2)"	"Linear Acceleration y (m/s^2)"	"Linear Acceleration z (m/s^2)"	"Absolute acceleration (m/s^2)"
1.434779940E-1	5.324804783E-2	1.826345444E0	-7.756233215E-2	1.828767057E0
1.618165870E-1	-2.100939751E-1	2.791008949E0	-1.775307655E-1	2.804529837E0
1.801551810E-1	-3.922311068E-1	3.215277672E0	5.255765915E-1	3.281476269E0
1.984937750E-1	-1.985750198E-1	2.807310104E0	1.286730766E0	3.094527125E0
2.168323690E-1	9.200221896E-1	1.657191277E0	1.077221394E0	2.180167353E0
2.351709620E-1	1.519692421E0	1.678516388E0	8.257436752E-2	2.265767165E0
2.535095560E-1	2.198375702E0	3.717859268E0	-2.533764839E-1	4.326607552E0
2.718482020E-1	2.985526085E0	4.793114662E0	-1.973653078E0	5.981857625E0
2.901739830E-1	3.600514650E0	3.523768425E0	-3.253235340E0	5.997015077E0
3.085253890E-1	4.099729061E0	3.103220940E0	-4.322167873E0	6.717059900E0
3.268639830E-1	3.591977119E0	3.505969048E0	-3.571632385E0	6.160412039E0
3.452025770E-1	2.691080570E0	2.737504959E0	-2.788385630E0	4.744569786E0
3.635411710E-1	1.964863777E0	7.376174927E-1	-2.672492027E0	3.398085176E0
3.818797640E-1	1.160312653E0	-5.431241989E-1	-2.034276009E0	2.404077417E0
4.002055980E-1	9.304078817E-1	-1.303666592E0	-7.697637081E-1	1.777003538E0
4.185569520E-1	1.250848174E0	-1.822040081E0	-7.861232758E-2	2.211477133E0
4.368955460E-1	1.980460048E0	-2.775017738E0	-9.246754646E-2	3.410497866E0
4.552213790E-1	2.590623617E0	-3.234833717E0	-1.881986856E0	4.551632063E0
4.735727850E-1	2.119770050E0	-2.192483902E0	-2.957735538E0	4.248365596E0
4.919113790E-1	1.945489168E0	-1.061572552E0	-1.506350040E0	2.679730365E0
5.102372120E-1	1.581144094E0	3.530454636E-1	-1.541193247E0	2.236053302E0
5.285885660E-1	2.976814270E0	8.707799911E-1	-2.398243189E0	3.920618750E0
5.469271600E-1	3.428918600E0	9.742498398E-1	-1.389660597E0	3.825938067E0
5.652657540E-1	2.305121422E0	5.052337646E-1	-7.761559486E-1	2.484202887E0
5.836043480E-1	1.070438385E0	1.245117188E-2	-4.917051792E-1	1.178035378E0
6.019429940E-1	-1.205170155E-1	-2.745914459E-1	-7.970275879E-1	8.515737132E-1
6.202815870E-1	-9.182630777E-1	-1.652956009E-1	-8.478791714E-1	1.260725507E0
6.386201810E-1	-1.033496857E0	9.742069244E-2	-9.004282951E-1	1.374182542E0
6.569587750E-1	-5.244504213E-1	4.785442352E-2	-8.422122002E-1	9.933074451E-1
6.752973690E-1	-2.007217407E-1	-1.412563324E-1	1.851763725E-1	3.074619612E-1
6.936360140E-1	3.388183117E-1	-6.514816284E-1	9.564328194E-1	1.205815035E0
7.119745560E-1	5.904474258E-1	-1.030197144E0	1.378305912E0	1.819247510E0
7.303131500E-1	1.778404713E-1	-8.049068451E-1	1.484813452E0	1.698285385E0
7.486517960E-1	-2.701940536E-1	-3.656749725E-1	1.599758625E0	1.663114750E0
7.669903890E-1	-8.267364502E-1	3.689365387E-1	1.778909922E0	1.996028015E0
7.853162230E-1	-1.018489957E0	1.071440697E0	2.890490055E0	3.246573535E0
8.036675770E-1	-1.437909603E0	9.606161118E-1	4.390849113E0	4.719101957E0
8.220061710E-1	-2.809254408E0	-5.687351227E-1	4.997748852E0	5.761324809E0
8.403320040E-1	-3.777744293E0	-2.260457993E0	3.519877434E0	5.636537894E0
8.586834100E-1	-3.092313051E0	-2.625969887E0	1.641024113E0	4.376194465E0
8.770220040E-1	-2.286196232E0	-1.941829205E0	-4.206898212E-1	3.028922877E0
8.953478370E-1	-1.994974852E0	-1.535273552E0	-2.617884159E0	3.631846226E0
9.136991910E-1	-1.255195498E0	-1.712658882E0	-3.996994734E0	4.526000783E0
9.320378370E-1	1.464175105E0	1.186132431E0	-3.719249725E0	4.169356953E0
9.503636710E-1	7.288992405E0	8.945238113E0	-8.202304840E-1	1.156803671E1
9.687150250E-1	1.099309158E1	1.583717537E1	-2.027419567E0	1.938490692E1
9.870536190E-1	7.504268646E0	1.338672066E1	-4.301830769E0	1.593813307E1
1.005379452E0	3.250282764E0	8.032891273E0	-6.205161095E0	1.065812856E1
1.023730858E0	-2.639123201E-1	3.990958214E0	-8.235087395E0	9.155001998E0
1.042069452E0	-3.690234900E0	7.907085419E-1	-9.049343109E0	9.804777627E0
1.060395285E0	-5.491657257E0	-2.725509644E0	-7.058218956E0	9.349072525E0
1.078746639E0	-4.931312561E0	-4.628459930E0	-4.775990009E0	8.279526887E0
1.097085233E0	-9.223185778E-1	-5.198189735E0	-1.158467054E0	5.404987882E0
1.115411066E0	3.075638294E0	-4.760541916E0	4.084682465E-1	5.682354843E0
1.133762473E0	5.386585236E0	-4.063560963E0	-2.526731491E-1	6.752160537E0
1.152101066E0	6.352041245E0	-2.980511189E0	-1.947082281E0	7.281689661E0
1.170426900E0	6.853632927E0	-1.571241379E0	-4.069303513E0	8.124057782E0
1.188778306E0	6.403790951E0	-5.548648834E-1	-4.723422527E0	7.976661830E0
1.207116900E0	4.665291786E0	-8.065209389E-1	-3.701985836E0	6.010001881E0
1.225442733E0	2.416336060E0	-1.409111500E0	-2.130926371E0	3.516407594E0
1.243794139E0	5.135400295E-1	-1.398636341E0	-3.461747169E-1	1.529622147E0
1.262132733E0	-1.999097705E0	-1.028897762E0	1.262781620E0	2.578689524E0
1.280458566E0	-5.155296326E0	-6.268501282E-2	1.867500782E0	5.483481448E0
1.298809921E0	-7.482607841E0	1.037898064E0	9.302778244E-1	7.611311932E0
1.317148566E0	-7.322178841E0	2.433635712E0	2.560758591E-1	7.720262988E0
1.335474400E0	-4.415564537E0	5.890248299E0	4.459290504E-1	7.375031384E0
1.353825754E0	-2.658185959E-1	8.416305542E0	9.394264221E-1	8.472743387E0
1.372164400E0	2.700346947E0	6.086227417E0	1.719882965E0	6.876920475E0
1.390490181E0	3.654542446E0	2.273245811E0	-3.715124130E-1	4.319878295E0
1.408841587E0	3.383983135E0	3.771379471E0	-2.434552908E0	5.621538298E0
1.427180181E0	4.055351257E0	6.395772934E0	-5.505302906E0	9.362699682E0
1.445506014E0	7.783292294E0	7.298105240E0	-8.047534943E0	1.336431059E1
1.463857421E0	9.643170357E0	5.301904678E0	-6.151608467E0	1.260726832E1
1.482196014E0	7.885655403E0	3.676947594E0	-3.910032272E0	9.538965201E0
1.500521848E0	5.378741264E0	2.778803825E0	-1.820215464E0	6.321850411E0
1.518873254E0	3.947476864E0	1.360080719E0	-1.287483931E0	4.369211373E0
1.537211848E0	3.265073299E0	-4.517793655E-1	-6.615324020E-1	3.361909184E0
1.555537681E0	3.097317696E0	-1.832302094E0	3.264338970E-1	3.613484047E0
1.573889087E0	3.432119846E0	-2.353233337E0	-9.802508354E-2	4.162542816E0
1.592227681E0	3.069782734E0	-2.664885521E0	-9.371147156E-1	4.171734036E0
1.610553566E0	1.795046687E0	-3.104582787E0	-2.766969442E0	4.529541564E0
1.628904921E0	1.082157373E0	-3.303359985E0	-4.126537323E0	5.395513141E0
1.647243514E0	1.385264039E0	-3.321083546E0	-3.267081738E0	4.860285532E0
1.665569348E0	1.356271148E0	-3.031990051E0	-1.391782284E0	3.601318234E0
1.683920754E0	1.033604383E0	-1.861405373E0	-7.092204094E-1	2.244139383E0
1.702259348E0	4.481734037E-1	-8.094787598E-1	-6.766910553E-1	1.146309752E0
1.720585181E0	-2.994022369E-1	1.801414490E-1	-8.619835377E-1	9.301119612E-1
1.738936587E0	-1.002169490E0	1.158707619E0	-9.214854240E-1	1.787759049E0
1.757275181E0	-8.883378506E-1	1.695937157E0	1.702785492E-3	1.914510349E0
1.775601014E0	-5.457067490E-1	1.832514763E0	1.274822474E0	2.298059736E0
1.793952421E0	-6.604268551E-1	1.411161423E0	1.702467203E0	2.307798685E0
1.812291014E0	2.017593384E-2	3.831205368E-1	2.087696314E0	2.122655015E0
1.830616848E0	5.226330757E-1	-4.121847153E-1	3.489421368E0	3.552337688E0
1.848968254E0	-4.396491051E-1	-3.955936432E-1	4.513058662E0	4.551646313E0
1.867306848E0	-1.927951932E0	2.724475861E-1	5.096817493E0	5.456076878E0
1.885645494E0	-2.432650328E0	9.304714203E-1	5.464214325E0	6.053197739E0
1.903984087E0	-2.982766867E0	-4.229536057E-1	5.446767807E0	6.224392940E0
1.922322681E0	-3.525310993E0	-2.621072769E0	3.625990629E0	5.696108154E0
1.940648566E0	-2.891322613E0	-4.057914734E0	1.496640682E0	5.202533207E0
1.958999921E0	-2.128748178E0	-3.458549976E0	-1.067495346E-2	4.061188336E0
1.977338514E0	-1.543613195E0	-2.057402611E0	-2.433421612E0	3.540789169E0
1.995664348E0	2.705494165E-1	2.762861252E-1	-4.444037914E0	4.460829967E0
2.014015754E0	4.525852680E0	6.485202789E0	-4.587854862E0	9.142735364E0
2.032354348E0	1.062157249E1	1.551253796E1	-2.617007256E0	1.898171128E1
2.050680233E0	1.004990578E1	1.773842239E1	-1.349579334E0	2.043217070E1
2.069031587E0	5.403862000E0	1.229437447E1	-4.653005600E0	1.421280511E1
2.087370233E0	1.747643709E0	5.862917900E0	-9.619764328E0	1.140034783E1
2.105696066E0	-1.848002672E0	1.342477798E0	-9.895770073E0	1.015596504E1
2.124047473E0	-6.046292305E0	-1.948868752E0	-9.838891029E0	1.171151215E1
2.142386066E0	-9.177384377E0	-3.737351418E0	-6.106499672E0	1.163965282E1
2.160711900E0	-5.087056637E0	-5.729916096E0	-9.329209328E-1	7.718835738E0
2.179063306E0	3.271065474E0	-6.844617844E0	-1.456499100E-2	7.586097475E0
2.197401900E0	7.111335754E0	-5.483694077E0	6.572055817E-1	9.004105514E0
2.215727733E0	8.385161400E0	-4.677740097E0	-9.397313595E-1	9.647553013E0
2.234079139E0	7.792951107E0	-3.518238068E0	-4.521001816E0	9.671997905E0
2.252417733E0	6.919771194E0	-1.291199207E0	-6.102081299E0	9.315890991E0
2.270743619E0	5.158117294E0	-3.355684280E-1	-5.269371986E0	7.381399686E0
2.289094973E0	3.091802835E0	-4.410691261E-1	-3.668844700E0	4.818112512E0
2.307433619E0	1.735316157E0	-6.711168289E-1	-2.477880955E0	3.098647123E0
2.325759452E0	-2.474149466E-1	-4.178528786E-1	-1.414669991E0	1.495695947E0
2.344110858E0	-2.940546989E0	1.559782028E-1	1.036100388E-1	2.946503154E0
2.362449452E0	-5.835081577E0	9.901294708E-1	1.066867828E0	6.013878977E0
2.380775285E0	-6.259086609E0	7.283792496E-1	1.926412582E0	6.589215958E0
2.399126691E0	-2.873430252E0	3.084239960E0	3.218642712E0	5.303658968E0
2.417465285E0	-7.051405907E-1	6.961689949E0	3.950082779E0	8.035266278E0
2.435791171E0	-7.261434793E-1	7.010846138E0	2.931666374E0	7.633735367E0
2.454142525E0	1.108649611E0	4.094357491E0	-3.302583694E-1	4.254637213E0
2.472481171E0	1.611232281E0	8.041790962E0	-1.067343235E0	8.270773418E0
2.490807004E0	3.655259371E0	1.389123631E1	-6.374978542E0	1.571520660E1
2.509158410E0	9.176024437E0	9.901638031E0	-9.879402161E0	1.672855186E1
2.527497004E0	1.157985592E1	1.948737144E0	-7.693634987E0	1.403861314E1
2.545822837E0	9.110754967E0	1.228609085E-1	-5.223327637E0	1.050257599E1
2.564174244E0	5.777486801E0	4.886627197E-1	-1.781518698E0	6.065637136E0
2.582512889E0	3.998765230E0	-8.047485352E-2	-5.980787277E-1	4.044044724E0
2.600838723E0	3.005567074E0	-1.209838867E0	5.809526443E-1	3.291602876E0
2.619190129E0	2.668421745E0	-1.992160320E0	2.191573858E0	3.986498881E0
2.637528723E0	2.640339375E0	-2.007063866E0	1.874697924E0	3.809749293E0
2.655854556E0	1.641997814E0	-2.138829231E0	-9.875388145E-1	2.871581483E0
2.674205962E0	2.614338100E-1	-3.162717342E0	-5.334548950E0	6.207136306E0
2.692544608E0	4.152891040E-1	-3.665156364E0	-4.760608673E0	6.022394138E0
2.710883202E0	1.412944555E0	-4.001272678E0	-3.575867653E0	5.549182357E0
2.729221848E0	1.471402049E0	-3.565508842E0	-1.030858040E0	3.992561282E0
2.747560441E0	8.974828720E-1	-1.680098057E0	2.254519463E-1	1.918080699E0
2.765886275E0	-9.671306610E-2	5.945177078E-1	-2.811305523E-1	6.647097934E-1
2.784237681E0	-9.168986082E-1	1.518395424E0	-1.185939550E0	2.133701089E0
2.802576327E0	-8.945494294E-1	1.674023628E0	-6.563618183E-1	2.008328814E0
2.820902160E0	-3.391501904E-1	1.832212448E0	1.724474192E0	2.538865208E0
2.839253566E0	-6.135092974E-1	2.191203117E0	3.233685017E0	3.954046478E0
2.857592212E0	-9.987596273E-1	9.175472260E-1	3.769330263E0	4.005903686E0
2.875918046E0	-1.086867571E0	-1.314413071E0	4.840189934E0	5.131900372E0
2.894269452E0	-1.085326672E0	-2.631367683E0	5.250596046E0	5.972502718E0
2.912608046E0	-1.740098000E0	-1.820342541E0	4.473411083E0	5.133516800E0
2.930946691E0	-2.073671818E0	-1.101551056E-1	4.700298309E0	5.138584742E0
2.949285285E0	-1.992716074E0	-2.316331863E-1	5.140172958E0	5.517784821E0
2.967623931E0	-2.341599703E0	-2.230768204E0	3.580112219E0	4.824584899E0
2.985949764E0	-2.978359938E0	-3.581335545E0	1.504646301E0	4.894951756E0
3.004301171E0	-3.655461311E0	-2.241124153E0	-1.823843241E0	4.659553523E0
3.022639764E0	-2.613461733E0	8.124341965E-1	-4.888495445E0	5.602465464E0
3.040965650E0	1.753047109E0	5.210312843E0	-4.784333229E0	7.287686775E0
3.059317056E0	6.483728409E0	1.421572113E1	-5.230449677E0	1.647674316E1
3.077655650E0	7.597802162E0	2.038469696E1	-2.751342058E0	2.192788980E1
3.095981535E0	5.487000465E0	1.570224190E1	-3.763375998E0	1.705375541E1
3.114332889E0	3.545881271E0	6.921781540E0	-7.622285843E0	1.088960859E1
3.132671535E0	9.487911463E-1	-3.644752502E-2	-9.467618942E0	9.515111218E0
3.150997369E0	-2.318565607E0	-4.601709366E0	-9.736164093E0	1.101564192E1
3.169348775E0	-5.950935364E0	-5.365990639E0	-5.805873871E0	9.895234138E0
3.187687421E0	-6.437227249E0	-5.371778488E0	-2.303091288E0	8.694718412E0
3.206013254E0	-6.544157267E-1	-5.978761196E0	-8.351783752E-1	6.072179864E0
3.224364660E0	3.460016727E0	-5.157278061E0	-1.107125044E0	6.308324549E0
3.242703254E0	5.366160393E0	-4.571898460E0	-2.090209246E0	7.353020303E0
3.261029139E0	6.292068481E0	-3.853540897E0	-3.628951073E0	8.222480715E0
3.279380546E0	6.768016338E0	-2.058890820E0	-5.137212276E0	8.742769958E0
3.297719139E0	6.196334839E0	-3.134498596E-1	-4.713122845E0	7.791427546E0
3.316045025E0	4.313555241E0	1.268267632E-1	-2.657829523E0	5.068224701E0
3.334396431E0	2.164601088E0	-1.687049866E-3	-2.002227306E0	2.948629326E0
3.352735025E0	-2.393596172E-1	-9.158897400E-2	-1.610044003E0	1.630313852E0
3.371060910E0	-3.569965839E0	1.086969376E-1	-6.536760330E-1	3.630945259E0
3.389412316E0	-6.344122887E0	2.294015884E-1	5.347480774E-1	6.370751588E0
3.407750910E0	-6.474649906E0	-7.302284241E-2	1.915815830E0	6.752538340E0
3.426076796E0	-3.435976267E0	3.299328804E0	2.596240520E0	5.425123805E0
3.444428150E0	-5.914872885E-1	7.382888794E0	3.338474751E0	8.124181055E0
3.462766796E0	1.259910703E0	6.134583473E0	2.897891045E0	6.900598661E0
3.481092629E0	2.985328674E0	4.253867149E0	-3.873977661E-1	5.211300226E0
3.499444035E0	3.415365934E0	9.014455795E0	-4.802808285E0	1.076996310E1
3.517782681E0	5.185937881E0	1.425483131E1	-1.039253044E1	1.838746466E1
3.536108514E0	8.989635468E0	1.044070721E1	-8.376828194E0	1.612430350E1
3.554459921E0	9.107178688E0	2.668548584E0	-5.691223621E0	1.106579783E1
3.572798566E0	5.025717258E0	1.491313934E0	-1.721759558E0	5.517817248E0
3.591124400E0	2.646791697E0	9.829244614E-1	-6.628417969E-1	2.900173448E0
3.609475806E0	2.665297985E0	-1.565731049E0	-1.571600437E0	3.467744944E0
3.627814452E0	3.010846138E0	-2.677521229E0	2.492570877E-2	4.029259943E0
3.646140285E0	3.581497192E0	-2.603346825E0	1.569168091E0	4.697533962E0
3.664491691E0	4.056591988E0	-1.873576164E0	2.124432325E0	4.947670048E0
3.682830337E0	3.364334583E0	-9.909977913E-1	1.078497410E0	3.669329704E0
3.701156171E0	7.224202156E-1	-1.020238400E0	-5.616896629E0	5.754329249E0
3.719507629E0	1.611828804E0	-1.684413433E0	-7.016666889E0	7.393838985E0
3.737846223E0	3.018676281E0	-2.843653679E0	-4.310877323E0	5.981842194E0
3.756172056E0	2.494398594E0	-3.151189327E0	-1.281749010E0	4.218400058E0
3.774523462E0	5.366809368E-1	-1.852104187E0	1.545567513E-1	1.934477743E0
3.792862108E0	-1.846451759E0	-1.566438675E-1	-2.477772236E-1	1.869576143E0
3.811187941E0	-1.867544889E0	3.816480637E-1	-1.087683916E0	2.194637888E0
3.829539348E0	-1.336318731E0	1.813434601E0	2.445566654E-1	2.265855416E0
3.847877994E0	-1.181226373E0	1.992773056E0	2.686237574E0	3.547155550E0
3.866203827E0	-1.329523802E0	7.527828217E-2	4.517504215E0	4.709686263E0
3.884555233E0	-1.902171969E0	-1.956918240E0	5.130583763E0	5.811254335E0
3.902893879E0	-3.269822836E0	-1.743047714E0	4.202529430E0	5.602785943E0
3.921219712E0	-4.705951691E0	-7.014942169E-2	3.131862879E0	5.653270500E0
3.939571119E0	-4.475714207E0	1.418865204E0	3.860360861E0	6.078452279E0
3.957909764E0	-3.445715427E0	7.333803177E-1	4.443212509E0	5.670356153E0
3.976235598E0	-3.275352955E0	-1.497537613E0	3.750514984E0	5.199703696E0
3.994587004E0	-2.447901726E0	-4.096071243E0	2.700744152E0	5.483068617E0
4.012925650E0	-1.914866209E0	-4.401719570E0	4.438240528E-1	4.820666714E0
4.031251483E0	-1.833868504E0	-2.432082176E0	-3.396775007E0	4.562474970E0
4.049602889E0	3.030300140E-4	1.104495049E0	-5.215333939E0	5.331005299E0
4.067941535E0	4.917716026E0	8.789839745E0	-2.926466942E0	1.048853767E1
4.086267369E0	9.565726280E0	1.864932251E1	-3.329501867E0	2.122229799E1
4.104618775E0	8.517342567E0	2.128427124E1	-1.909318924E0	2.300458270E1
4.122957421E0	3.089901209E0	1.334256554E1	-7.900903702E0	1.581125624E1
4.141283254E0	-5.430691242E-1	4.533795357E0	-1.049777603E1	1.144786120E1
4.159634660E0	-3.550336599E0	-1.507271767E0	-8.528906822E0	9.360502643E0
4.177973306E0	-5.778595924E0	-4.964673996E0	-6.323697090E0	9.900974883E0
4.196299191E0	-5.415570259E0	-5.676660538E0	-1.700408697E0	8.027718594E0
4.214650598E0	1.950203180E-1	-6.258943558E0	1.609222412E0	6.465446942E0
4.232989191E0	5.111292839E0	-5.895241737E0	9.277405739E-1	7.857473653E0
4.251315077E0	6.676848412E0	-5.558135986E0	-2.507712603E0	9.042223336E0
4.269666483E0	5.939000130E0	-4.707198143E0	-6.059996605E0	9.703246660E0
4.288005077E0	5.642039299E0	-2.579443932E0	-6.787409782E0	9.195383081E0
4.306330962E0	5.275702000E0	-8.447141647E-1	-4.985753059E0	7.307825065E0
4.324682369E0	4.117350578E0	-2.748489380E-3	-3.115788937E0	5.163402370E0
4.343021014E0	2.737007380E0	1.521987915E-1	-2.446915865E0	3.674475625E0
4.361346848E0	9.070760012E-1	-6.424951553E-2	-2.005607843E0	2.202130263E0
4.379698254E0	-2.022007942E0	4.117965698E-2	-9.197506905E-1	2.221745533E0
4.398036900E0	-5.556075096E0	6.308679581E-1	5.356855392E-1	5.617376955E0
4.416362733E0	-6.890561581E0	-1.573781967E-1	3.487907887E0	7.724642919E0
4.434714139E0	-4.351763248E0	1.467389107E0	3.845033646E0	5.989604152E0
4.453052785E0	-1.638786197E0	6.418148041E0	2.896958351E0	7.229841780E0
4.471378619E0	-6.040176153E-1	6.968944550E0	1.691137314E0	7.196594391E0
4.489730025E0	9.429159164E-1	3.577046394E0	-2.440922022E0	4.431980556E0
4.508068671E0	1.689157844E0	7.445876122E0	-1.902276754E0	7.868480304E0
4.526394504E0	3.277224064E0	1.383414173E1	-6.416058540E0	1.559773965E1
4.544745910E0	9.047156334E0	1.100781536E1	-8.371385574E0	1.652583230E1
4.563084556E0	1.143661213E1	2.541359901E0	-5.663827419E0	1.301282245E1
4.581410389E0	1.011552525E1	3.304729462E-1	-4.117300987E0	1.092635487E1
4.599761796E0	5.529433250E0	1.410213470E0	-1.363422394E0	5.867048212E0
4.618100441E0	3.259112358E0	2.161149979E0	-1.002388477E0	4.036974765E0
4.636426275E0	2.561891079E0	1.139684677E0	-4.543738365E-1	2.840532106E0
4.654777681E0	2.910757065E0	-4.077043533E-1	1.147184372E0	3.155116719E0
4.673116327E0	4.182634354E0	-1.220956802E0	1.623197079E0	4.649724121E0
4.691442160E0	4.642044067E0	-1.775042057E0	-6.543967724E-1	5.012742020E0
4.709793566E0	3.202913284E0	-2.613857269E0	-2.665819168E0	4.919094954E0
4.728132212E0	1.641324997E0	-3.226487160E0	-4.585018158E0	5.841794129E0
4.746470858E0	1.376412272E0	-3.686917305E0	-3.932561874E0	5.563534205E0
4.764809504E0	1.204777002E0	-3.966232300E0	-1.945087910E0	4.578848464E0
4.783148098E0	2.468224764E-1	-3.230178356E0	-4.498703480E-1	3.270681409E0
4.801473931E0	-1.144371152E0	-1.923567772E0	2.216169834E-1	2.249180383E0
4.819825337E0	-2.213573456E0	-7.642135620E-1	-2.060728073E-1	2.350828751E0
4.838163983E0	-2.235442877E0	5.783338547E-1	-7.342510223E-1	2.422973270E0
4.856489816E0	-8.032494783E-1	1.964467049E0	5.707476139E-1	2.197747335E0
4.874841223E0	-5.350509882E-1	2.414292336E0	2.183028221E0	3.298590495E0
4.893179869E0	-1.678140163E0	1.036152840E0	3.523888588E0	4.038261742E0
4.911505702E0	-2.459026575E0	-1.115294456E0	4.244919777E0	5.030908202E0
4.929857108E0	-1.602291107E0	-2.455775261E0	4.497427940E0	5.368894393E0
4.948195754E0	-1.132409096E0	-1.168896675E0	3.934200525E0	4.257534917E0
4.966521587E0	-1.807129741E0	6.489458084E-1	3.854988098E0	4.306713573E0
4.984872994E0	-1.844475985E0	3.521671295E-1	4.573910713E0	4.944367761E0
5.003211639E0	-2.258264780E0	-1.271528244E0	3.579757214E0	4.419412359E0
5.021537473E0	-2.987924576E0	-2.612136841E0	2.030327082E0	4.457934522E0
5.039888879E0	-2.837578058E0	-1.864174843E0	2.240202427E-1	3.402525849E0
5.058227525E0	-2.103578568E0	3.495416641E-1	-2.776194096E0	3.500639345E0
5.076553358E0	7.857620120E-1	1.982742310E0	-4.340364456E0	4.836057549E0
5.094904764E0	4.556430817E0	6.958200455E0	-2.951869965E0	8.825596390E0
5.113243410E0	7.816101551E0	1.406114388E1	-2.541466475E0	1.628699673E1
5.131569244E0	8.114644051E0	1.634377480E1	-2.247754097E0	1.838528817E1
5.149920650E0	5.272836208E0	1.197994614E1	-5.536342621E0	1.421172054E1
5.168259296E0	2.082490444E0	5.553935051E0	-8.672589302E0	1.050698654E1
5.186585129E0	-6.014891863E-1	1.195797920E0	-7.780600071E0	7.894900846E0
5.204936535E0	-3.763987541E0	-1.917292595E0	-8.311573982E0	9.323404698E0
5.223275181E0	-6.628503799E0	-4.336956024E0	-6.916605949E0	1.051597300E1
5.241601014E0	-5.207156658E0	-6.233738899E0	-3.413110733E0	8.810408958E0
5.259952421E0	3.018310070E-1	-7.404328823E0	-4.989900589E-1	7.427259142E0
5.278291066E0	4.597540855E0	-7.075366497E0	3.587975502E-1	8.445527140E0
5.296616900E0	7.009779930E0	-6.529676437E0	-2.348113060E-1	9.582735799E0
5.314968306E0	7.582740784E0	-5.104215622E0	-2.023466110E0	9.361911664E0
5.333306952E0	7.202001572E0	-2.072207928E0	-3.722861290E0	8.367948884E0
5.351632785E0	6.793432713E0	1.027826309E0	-4.430446625E0	8.175329488E0
5.369984191E0	5.127006531E0	2.615344048E0	-3.422885895E0	6.696444452E0
5.388322785E0	2.883940935E0	1.622890472E0	-2.451831102E0	4.118539129E0
5.406648671E0	1.528522253E0	5.230617523E-1	-2.385761499E0	2.881289955E0
5.425000077E0	-5.138955116E-1	3.273200989E-2	-1.510477781E0	1.595839312E0
5.443338671E0	-3.486234903E0	-5.739312172E-1	6.300292015E-1	3.588895044E0
5.461664556E0	-6.119925022E0	-1.305071354E0	2.578554630E0	6.767986222E0
5.480015962E0	-7.024618626E0	-6.538300514E-1	3.065135956E0	7.692062077E0
5.498354556E0	-5.821729660E0	3.518694878E0	2.261148930E0	7.168440860E0
5.516680441E0	-2.791607380E0	8.178826332E0	1.987134457E0	8.867636398E0
5.535031848E0	-4.244146347E-1	6.011640549E0	3.579331398E0	7.009391067E0
5.553370441E0	2.290410519E0	2.321846962E0	6.172947884E-1	3.319338265E0
5.571696275E0	2.087523460E0	4.894008636E0	-1.318848610E0	5.481645409E0
5.590047681E0	2.326081753E0	8.530791283E0	-6.932622910E0	1.123593862E1
5.608386327E0	6.139282703E0	9.736121178E0	-1.226262951E1	1.681829154E1
5.626712160E0	9.699211121E0	6.884635925E0	-6.562199593E0	1.358437969E1
5.645063566E0	8.896015167E0	3.240957260E0	-2.969164371E0	9.922642132E0
5.663402212E0	5.907135963E0	2.174349785E0	-1.507608414E0	6.472629713E0
5.681728046E0	4.239388466E0	1.254171371E0	-8.983674049E-1	4.511366133E0
5.700079452E0	3.821509361E0	-5.274190903E-1	-2.464063168E-1	3.865594491E0
5.718418098E0	4.309064865E0	-2.031693935E0	1.421411514E0	4.971542110E0
5.736743931E0	4.709363937E0	-2.551618099E0	1.123665094E0	5.472795160E0
5.755104377E0	3.162227154E0	-2.830216408E0	-3.137588501E-4	4.243796129E0
5.773443023E0	-2.629961669E-1	-2.761250496E0	-2.086684704E0	3.471012005E0
5.791768856E0	-1.608333349E0	-3.110745430E0	-2.559244156E0	4.337419042E0
5.810116830E0	-8.507885337E-1	-3.407806396E0	-2.982823133E0	4.608060266E0
5.828455423E0	-9.943777323E-2	-2.946125507E0	-2.288177967E0	3.731662067E0
5.846794069E0	4.234482050E-1	-2.202498436E0	-1.242940187E0	2.564216850E0
5.865132715E0	7.794115543E-1	-1.459013462E0	-8.541488647E-1	1.861658652E0
5.883471309E0	7.110376358E-1	-3.363761902E-1	-7.667193413E-1	1.098445269E0
5.901797194E0	6.984305382E-2	8.110198975E-1	-2.201821804E-1	8.432742844E-1
5.920148601E0	-1.355621815E-1	9.921512604E-1	1.666110277E0	1.943878773E0
5.938487194E0	-7.650884390E-1	9.743232727E-1	3.180959940E0	3.413674311E0
5.956813028E0	-1.479404330E0	4.533176422E-1	3.698325396E0	4.008958068E0
5.975164434E0	-1.963406801E0	-1.173296928E0	4.579428196E0	5.118862623E0
5.993503080E0	-2.569904804E0	-2.533995628E0	5.166729927E0	6.302431490E0
6.011841673E0	-3.150303364E0	-2.087053776E0	4.497566223E0	5.874377131E0
6.030180319E0	-3.374371767E0	-8.324422836E-1	4.073956490E0	5.355041219E0
6.048518965E0	-3.135114193E0	-5.540199280E-1	4.189373016E0	5.261817685E0
6.066844798E0	-3.158405781E0	-1.666774273E0	2.906741381E0	4.604650802E0
6.085196205E0	-3.702388048E0	-2.625168324E0	2.178249359E0	5.034278127E0
6.103534798E0	-2.975023508E0	-5.606288910E-1	7.131814957E-2	3.028226528E0
6.121860684E0	-7.013847828E-1	2.115325928E0	-3.426135063E0	4.087168441E0
6.140212090E0	2.431194305E0	4.194989204E0	-4.008537292E0	6.291026260E0
6.158550684E0	5.956970215E0	9.930664062E0	-2.997449160E0	1.196195153E1
6.176876517E0	9.205477715E0	1.598718643E1	-3.308318377E0	1.874235632E1
6.195227923E0	8.333233833E0	1.527424145E1	-2.545030117E0	1.758472110E1
6.213566569E0	4.984619617E0	9.591860771E0	-5.642827988E0	1.219392199E1
6.231892403E0	2.215936899E0	4.511938095E0	-7.083164215E0	8.685572924E0
6.250243809E0	-9.032044411E-1	9.004755020E-1	-7.933580875E0	8.035442732E0
6.268582455E0	-5.797112465E0	-1.486243725E0	-7.759276390E0	9.799071560E0
6.286908288E0	-9.115256310E0	-3.358194351E0	-5.969169617E0	1.140159431E1
6.305259694E0	-5.206968307E0	-5.882223129E0	-2.316560030E0	8.190208683E0
6.323598340E0	5.223605633E-1	-6.025942326E0	-6.089169979E-1	6.079113536E0
6.341924173E0	3.937439919E0	-5.920529366E0	-5.050234795E-1	7.128194007E0
6.360275580E0	5.636092663E0	-6.030844688E0	-1.942527533E0	8.479978855E0
6.378614226E0	6.154679298E0	-4.949439049E0	-3.430595875E0	8.610807873E0
6.396940059E0	6.366073132E0	-3.366827965E0	-3.845592499E0	8.164006328E0
6.415291465E0	6.047997475E0	-1.828769684E0	-3.462236643E0	7.204842440E0
6.433630111E0	4.714570045E0	-8.889122009E-1	-2.450198889E0	5.387096640E0
6.451955944E0	2.850851536E0	-6.911597252E-1	-1.902069330E0	3.496129858E0
6.470307351E0	7.459167242E-1	-3.793668747E-1	-1.161274195E0	1.431386999E0
6.488645996E0	-2.617679596E0	3.497037888E-1	-5.034351349E-2	2.641415090E0
6.506971830E0	-6.326682568E0	1.681917191E0	9.534044266E-1	6.615492253E0
6.525323236E0	-7.391683578E0	1.726554871E0	2.173993111E0	7.895835858E0
6.543661882E0	-5.530834198E0	3.492843628E0	3.050293446E0	7.217643219E0
6.561987715E0	-3.233816624E0	6.084328651E0	2.531252861E0	7.340563067E0
6.580339121E0	-3.234044313E-1	2.040141106E0	1.463438988E0	2.531485696E0
6.598677767E0	1.356897831E0	1.261579514E0	-1.571196556E0	2.429282448E0
6.617003601E0	8.407588005E-1	6.801878929E0	-3.265124798E0	7.591671244E0
6.635355007E0	3.673127651E0	1.549060726E1	-9.219750404E0	1.839713504E1
6.653693601E0	1.025359917E1	1.657723618E1	-8.591184616E0	2.130139686E1
6.672019486E0	1.210850048E1	3.488324165E0	-5.128640175E0	1.360467344E1
6.690370892E0	8.918828964E0	-8.598690033E-1	-2.637378216E0	9.340270266E0
6.708709538E0	3.957556725E0	-1.194121838E0	6.436300278E-1	4.183591974E0
6.727035371E0	1.921451092E0	-1.406527519E0	1.440373898E0	2.782978786E0
6.745386778E0	1.667539716E0	-2.477982521E0	1.470714808E0	3.329277418E0
6.763725423E0	2.588594437E0	-2.037665844E0	1.856980324E-1	3.299604068E0
6.782051257E0	4.713732243E0	-8.695402145E-1	-3.067336082E0	5.690687347E0
6.800402663E0	5.009761333E0	2.962512970E-1	-2.042740345E0	5.418326454E0
6.818741309E0	3.809001923E0	-1.017198563E0	-3.504490376E0	5.274906763E0
6.837067142E0	3.327757359E0	-2.711615562E0	-3.850206852E0	5.766361140E0
6.855418548E0	2.387969017E0	-3.467808247E0	-2.318337917E0	4.806535214E0
6.873757194E0	6.374624968E-1	-3.489149094E0	3.190827370E-2	3.547046373E0
6.892083028E0	-1.026406646E0	-2.967854500E0	1.331658840E0	3.411009557E0
6.910434434E0	-2.137984276E0	-1.754561424E0	2.341761589E-1	2.775662268E0
6.928773080E0	-2.035968781E0	2.271366119E-2	-1.291703343E0	2.411261560E0
6.947098913E0	-7.889614701E-1	1.136865616E0	2.164001465E-1	1.400625808E0
6.965450319E0	-5.889987946E-1	1.255462646E0	2.898201704E0	3.212892646E0
6.983788965E0	-1.582126021E0	-1.259489059E-1	3.520673275E0	3.861881172E0
7.002114798E0	-2.509397745E0	-1.911925316E0	3.631835222E0	4.810692522E0
7.020466205E0	-2.329251051E0	-2.688353539E0	4.072141647E0	5.406939319E0
7.038804851E0	-2.358049631E0	-1.695435524E0	3.550624371E0	4.587137789E0
7.057130684E0	-3.045130253E0	1.472187042E-1	3.345592976E0	4.526310193E0
7.075482090E0	-2.746348381E0	6.777963638E-1	4.466814995E0	5.287180112E0
7.093820736E0	-2.653811932E0	-7.217741013E-1	3.729439259E0	4.633831331E0
7.112146569E0	-2.836107254E0	-2.600396633E0	2.719175339E0	4.711632576E0
7.130498028E0	-2.064485788E0	-2.942757607E0	2.412412167E0	4.329163471E0
7.148836621E0	-1.565020323E0	-5.710220337E-1	-1.332162380E0	2.133075569E0
7.167162507E0	-1.634737849E-2	2.451555252E0	-4.508386612E0	5.131855438E0
7.185513913E0	3.709666729E0	6.796827316E0	-2.747943878E0	8.216427713E0
7.203852507E0	7.711095810E0	1.384927845E1	-2.607240438E0	1.606428383E1
7.222178392E0	7.934689522E0	1.615879822E1	-2.399142981E0	1.816100065E1
7.240529798E0	4.967915535E0	1.178906441E1	-5.029647827E0	1.374625700E1
7.258868444E0	2.773618221E0	4.978164673E0	-8.076465607E0	9.884552506E0
7.277194278E0	-4.034829140E-2	4.609174728E-1	-8.228069305E0	8.241067734E0
7.295545684E0	-3.934292316E0	-1.860857964E0	-8.416278839E0	9.474977461E0
7.313884330E0	-6.001999855E0	-3.482283592E0	-5.483644485E0	8.844244350E0
7.332210163E0	-4.453476429E0	-4.402282238E0	-1.884469748E0	6.539477612E0
7.350561569E0	-2.945351601E-2	-5.755293369E0	4.791579247E-1	5.775280218E0
7.368900215E0	3.658866405E0	-5.664914131E0	3.620882034E-1	6.753492678E0
7.387226048E0	4.807909489E0	-5.077297211E0	-1.791738033E0	7.218397731E0
7.405577507E0	4.890389919E0	-4.109360695E0	-4.480934143E0	7.802661705E0
7.423916101E0	5.066147804E0	-2.399209976E0	-4.978859901E0	7.497406752E0
7.442241986E0	4.981493950E0	-8.433203697E-1	-4.474657059E0	6.749001927E0
7.460593392E0	4.205189705E0	1.900148392E-1	-2.799081326E0	5.055154039E0
7.478932038E0	3.179008722E0	-1.392688751E-1	-1.368025780E0	3.463666671E0
7.497257871E0	1.104415059E0	-5.295257568E-1	-1.080388546E0	1.633208364E0
7.515609278E0	-2.161451817E0	-1.110296249E-1	-3.765237331E-1	2.196809426E0
7.533947923E0	-5.808719158E0	5.916709900E-1	5.349664688E-1	5.863231357E0
7.552273757E0	-6.920775890E0	-9.334440231E-1	1.806129694E0	7.213221273E0
7.570625163E0	-4.218335152E0	5.443096161E-2	3.072797060E0	5.219137472E0
7.588963809E0	-3.253838062E0	4.778666496E0	5.150318623E0	7.742667340E0
7.607289694E0	-1.755281568E0	2.314754486E0	5.524488926E0	6.241720885E0
7.625641101E0	1.082552671E-1	4.103278160E0	1.827482224E0	4.493139452E0
7.643979746E0	9.757723212E-1	1.359384537E1	-4.241289139E0	1.427351733E1
7.662305580E0	7.642202854E0	2.116140366E1	-1.226869392E1	2.562672667E1
7.680656986E0	1.252662849E1	8.128261566E0	-7.875144958E0	1.688203085E1
7.698995632E0	1.163091564E1	-9.338345528E-1	-5.665597916E0	1.297109268E1
7.717321465E0	7.673985004E0	-5.467853546E-1	-3.341710091E0	8.387851119E0
7.735672871E0	3.448108196E0	9.613800049E-1	-6.239347458E-1	3.633592742E0
7.754011517E0	2.312535524E0	2.454233170E-1	-2.469675541E-1	2.338599181E0
7.772337403E0	2.551251411E0	-9.475784302E-1	9.575428963E-1	2.885078343E0
7.790688809E0	3.415508509E0	-1.485935211E0	1.665858030E0	4.080292245E0
7.809027455E0	4.202031612E0	-1.796201706E0	1.254925728E-1	4.571559759E0
7.827353288E0	2.366500616E0	-1.959641457E0	-1.623854280E0	3.475258627E0
7.845704694E0	4.094885290E-1	-3.129354954E0	-2.503703117E0	4.028532311E0
7.864043340E0	-1.332642883E-1	-4.382309914E0	-2.292819500E0	4.947668219E0
7.882381986E0	-2.900839448E-1	-4.724465370E0	-1.283252835E0	4.904228743E0
7.900720632E0	-1.299110651E0	-3.809670925E0	-4.662883282E-1	4.052000228E0
7.919059278E0	-2.200944185E0	-1.874681473E0	-5.426573753E-1	2.941608906E0
7.937385111E0	-1.056087613E0	7.853412628E-2	-1.055708051E0	1.495328775E0
7.955736517E0	4.561983347E-1	1.778223038E0	-4.461348057E-1	1.889240683E0
7.974075215E0	8.296121359E-1	2.197143555E0	3.232562542E-1	2.370694139E0
7.992401048E0	-2.941167355E-1	1.029558182E0	1.963336945E0	2.236333307E0
8.010752455E0	-1.835004210E0	-6.543312073E-1	2.370382309E0	3.068240876E0
8.029091101E0	-2.370337009E0	-6.343078613E-1	3.160166264E0	4.000936742E0
8.047416934E0	-1.268367052E0	-5.944728851E-1	4.944043159E0	5.138649215E0
8.065768340E0	-1.329238176E0	-1.070066452E0	5.548681259E0	5.805151166E0
8.084106986E0	-2.990239620E0	-7.549104691E-1	3.201494694E0	4.445333629E0
8.102432871E0	-3.230399370E0	-1.170062065E0	1.624633551E0	3.800520951E0
8.120784278E0	-2.701297283E0	-1.237942696E0	1.248083115E0	3.222921127E0
8.139122923E0	-2.688814163E0	-9.464054108E-1	2.239598989E0	3.625080474E0
8.157448757E0	-1.152695537E0	3.951721191E-1	3.825044632E-1	1.277175661E0
8.175800215E0	5.702661872E-1	1.926469803E0	-1.523607016E0	2.521481264E0
8.194138861E0	3.208609581E0	3.415080070E0	-1.543640852E0	4.933637037E0
8.212464694E0	6.658915520E0	7.803638458E0	-1.801658988E0	1.041556068E1
8.230816101E0	8.825473785E0	1.049641132E1	-2.318474770E0	1.390823366E1
8.249154746E0	8.558375359E0	8.896502495E0	-2.893064022E0	1.267924938E1
8.267480632E0	5.179753780E0	7.216185570E0	-6.178553581E0	1.082024527E1
8.285832090E0	-4.919259846E-1	4.419844627E0	-1.018629932E1	1.111475198E1
8.304170684E0	-5.292322159E0	8.520345688E-1	-8.288280487E0	9.870675264E0
8.322496569E0	-7.612251759E0	-3.190611362E0	-6.101154804E0	1.026403759E1
8.340847976E0	-4.368716717E0	-6.676135063E0	-2.623546124E0	8.398777256E0
8.359186621E0	8.199498057E-1	-7.116701126E0	6.205272675E-1	7.190605447E0
8.377512455E0	4.730493069E0	-6.251151085E0	7.421321869E-1	7.874339003E0
8.395863913E0	5.546564102E0	-6.254447937E0	-1.441398859E0	8.482931274E0
8.414202559E0	4.667508125E0	-4.464444160E0	-4.025677204E0	7.610714205E0
8.432528392E0	3.905789375E0	-1.830681324E0	-5.420496941E0	6.927363989E0
8.450879851E0	3.081659079E0	5.036401749E-1	-4.853878975E0	5.771517756E0
8.469218496E0	2.124102592E0	1.972109795E0	-2.178323746E0	3.625758294E0
8.487544330E0	7.271509767E-1	1.964645386E0	-9.315133095E-1	2.292661571E0
8.505895788E0	-1.054385662E0	1.460073471E0	-1.156724215E0	2.140456627E0
8.524234382E0	-4.285703659E0	8.280305862E-1	-1.416578293E-1	4.367259718E0
8.542560267E0	-7.369822979E0	-1.003184319E0	1.615326881E0	7.611172738E0
8.560911673E0	-5.481031895E0	-2.786236286E0	3.048310757E0	6.862726990E0
8.579250319E0	-2.024851322E0	6.303749084E-1	4.092937469E0	4.609721524E0
8.597576205E0	-2.632045269E0	4.439754486E0	4.205480099E0	6.657713200E0
8.615927611E0	-1.544870853E0	3.554195404E0	3.364196301E0	5.131934106E0
8.634266309E0	5.094951391E-1	7.840708733E0	-3.366518021E-2	7.857317104E0
8.652592142E0	4.557788849E0	1.676007080E1	-6.404426098E0	1.851189040E1
8.670943601E0	1.006293201E1	1.380562878E1	-1.044595909E1	2.002438633E1
8.689282246E0	9.215675354E0	2.426906586E0	-7.411751747E0	1.207280464E1
8.707608080E0	6.466134548E0	-5.816783905E-1	-4.857212067E0	8.108128934E0
8.725959538E0	3.322767496E0	2.049601555E0	-8.888049126E-1	4.003951116E0
8.744298184E0	2.355136871E0	1.927024841E0	-6.061682701E-1	3.102826839E0
8.762624069E0	2.280744791E0	1.000690460E-1	8.575160503E-1	2.438676771E0
8.780975476E0	2.696109295E0	-1.241214752E0	3.245657682E0	4.398171573E0
8.799314121E0	3.448792458E0	-2.317811489E0	3.120448589E0	5.196500641E0
8.817640007E0	2.631553173E0	-3.158746719E0	-8.027849197E-1	4.188939790E0
8.835991413E0	7.446485758E-1	-3.543579102E0	-4.082385063E0	5.456860100E0
8.854330059E0	8.598926663E-2	-4.324958324E0	-4.009993553E0	5.898534306E0
8.872655944E0	4.560298920E-1	-4.618061066E0	-4.369969845E0	6.374251934E0
8.891007351E0	1.353201270E-1	-3.141187668E0	-3.562248707E0	4.751314276E0
8.909345996E0	3.054696321E-1	-7.251911163E-1	-1.271408677E0	1.495223687E0
8.927671882E0	1.348580480E0	1.601502419E0	1.931152344E-1	2.102563388E0
8.946023340E0	1.143148541E0	2.145816803E0	3.289699554E-3	2.431322513E0
8.964361986E0	3.029130697E-1	1.428318024E0	1.472860813E0	2.073925669E0
8.982687871E0	-5.050178766E-1	4.517889023E-1	3.776415348E0	3.836726358E0
9.001039278E0	-1.508299351E0	-1.189954758E0	4.264595985E0	4.677364448E0
9.019377923E0	-2.509368181E0	-2.959035397E0	3.912701845E0	5.510177391E0
9.037703809E0	-2.118733168E0	-4.072810173E0	3.880105972E0	6.010992871E0
9.056055215E0	-7.194912434E-1	-3.933595181E0	3.963987112E0	5.630633403E0
9.074393913E0	-1.248765230E0	-2.341904163E0	3.848914146E0	4.675261470E0
9.092719746E0	-1.985009313E0	-7.657575607E-1	3.986920357E0	4.519090677E0
9.111071205E0	-1.314040661E0	-1.070769310E0	4.277100563E0	4.600743310E0
9.129409851E0	-2.036361933E0	-2.847948074E0	2.529251575E0	4.319107742E0
9.147735736E0	-3.430841446E0	-1.738417625E0	9.981302023E-1	3.973541590E0
9.166087142E0	-3.342554092E0	2.266956329E0	-2.309390545E0	4.652423406E0
9.184425840E0	-5.993160605E-1	4.864104271E0	-4.070543766E0	6.370872519E0
9.202751673E0	2.405137539E0	8.343217850E0	-3.171164036E0	9.243930550E0
9.221103132E0	4.043752193E0	1.348668003E1	-2.786664486E0	1.435297771E1
9.239441778E0	4.148348808E0	1.414170170E1	-2.859200954E0	1.501238005E1
9.257767663E0	3.598073483E0	1.027755928E1	-5.155877113E0	1.204812958E1
9.276119121E0	3.439290524E0	5.169848442E0	-5.242936134E0	8.126772516E0
9.294457767E0	2.864633083E0	8.177213669E-1	-4.503448009E0	5.399614330E0
9.312783653E0	1.462985396E0	-2.217278481E0	-3.189527512E0	4.150871701E0
9.331135059E0	-1.512863278E0	-3.137012482E0	-3.474897146E0	4.919808206E0
9.349473705E0	-4.108369827E0	-3.854888439E0	-4.643606186E0	7.300818168E0
9.367799590E0	-1.368214726E0	-6.383358002E0	-4.541366577E0	7.952564448E0
9.386151048E0	1.287363052E0	-6.169827461E0	-4.435974121E0	7.707265464E0
9.404489694E0	2.650445938E0	-5.381244659E0	-3.680462360E0	7.037645980E0
9.422815580E0	3.887176037E0	-4.688075066E0	-3.478279591E0	7.013316924E0
9.441167038E0	4.108041763E0	-3.509105682E0	-3.067804813E0	6.212990922E0
9.459505684E0	3.819775581E0	-2.271407127E0	-2.454693317E0	5.076957269E0
9.477831569E0	3.233637094E0	-1.169940472E0	-2.222168207E0	4.094288840E0
9.496183028E0	2.335455418E0	-3.185214996E-1	-1.533537865E0	2.812035977E0
9.514521673E0	4.918521643E-1	1.263027191E-1	-3.246750832E-1	6.027311490E-1
9.532847559E0	-2.163316011E0	6.326093674E-1	-8.029270172E-2	2.255344252E0
9.551199017E0	-5.153622150E0	9.759054184E-1	6.662364006E-1	5.287351284E0
9.569537663E0	-6.569686413E0	4.246006012E-1	1.774636745E0	6.818386966E0
9.587863548E0	-4.413739681E0	6.394071579E-1	2.468096256E0	5.097199095E0
9.606215007E0	-3.800795078E0	3.439001083E0	2.992341042E0	5.935223381E0
9.624553653E0	-3.801961422E0	3.594666481E0	3.920932293E0	6.538367366E0
9.642879538E0	-3.987107277E-1	5.418701172E-1	2.607599258E0	2.692984842E0
9.661230996E0	1.122117519E0	5.264285088E0	4.677176476E-1	5.402833054E0
9.679569642E0	3.303528786E0	1.688732338E1	-7.106992245E0	1.861731270E1
9.697895528E0	1.200372696E1	2.167627335E1	-1.320376396E1	2.807649675E1
9.716246986E0	1.242343330E1	2.957304955E0	-7.296072006E0	1.470782154E1
9.734585632E0	8.042023659E0	-3.758241177E0	-3.256555557E0	9.455351679E0
9.752911517E0	2.764948606E0	-7.421779633E-1	1.470422745E0	3.218371012E0
9.771262976E0	1.202968359E0	8.264827728E-2	8.717122078E-1	1.487899790E0
9.789601673E0	1.602976799E0	-1.416404247E0	-4.804890156E-1	2.192397159E0
9.807927559E0	2.559557915E0	-7.514400482E-1	1.527636290E0	3.074031799E0
9.826278965E0	4.689627171E0	2.439107895E-1	1.375121593E0	4.893164096E0
9.844617663E0	5.350424767E0	2.096109390E-1	-2.310922146E0	5.831924476E0
9.862943548E0	3.036113739E0	-5.076160431E-1	-3.789846897E0	4.882478898E0
9.881294955E0	1.375963807E0	-2.780431747E0	-3.664970160E0	4.801675059E0
9.899633653E0	9.122121334E-1	-4.304006577E0	-1.969722390E0	4.820415945E0
9.917959538E0	3.587391973E-1	-4.207207203E0	-6.029274464E-1	4.265302775E0
9.936310996E0	-1.893465519E-1	-3.373806477E0	-1.801331043E-1	3.383913444E0
9.954649642E0	-3.773178458E-1	-1.968340874E0	-1.270985603E-1	2.008205317E0
9.972975528E0	-6.706628203E-1	-2.103385925E-1	-2.841603756E-1	7.581411881E-1
9.991326986E0	-6.257991791E-1	1.306859970E0	7.430243492E-2	1.450871616E0
1.000966568E1	-2.647234201E-1	1.424072266E0	1.519342184E0	2.099157207E0
1.002799157E1	-1.773124814E0	1.238021851E-1	3.543180704E0	3.964016661E0
1.004634303E1	-3.150565863E0	-1.752856255E0	3.667342424E0	5.142759061E0
1.006468167E1	-2.675970078E0	-3.080626011E0	3.497305393E0	5.374217849E0
1.008302037E1	-1.772929907E0	-2.925139427E0	3.856626749E0	5.154928807E0
1.010135902E1	-2.268170357E0	-1.638295174E0	3.525066853E0	4.500522654E0
1.011969766E1	-2.863790989E0	-2.738609314E-1	3.746145487E0	4.723336178E0
1.013803636E1	-2.591799974E0	-4.604339600E-2	4.194611549E0	4.930954588E0
1.015637501E1	-2.737666845E0	-1.634450436E0	3.156555653E0	4.486657060E0
1.017471370E1	-3.130719185E0	-3.802809715E0	2.407632351E0	5.482650626E0
1.019305240E1	-2.991452456E0	-3.273770332E0	2.201490402E0	4.951052411E0
1.021139105E1	-2.256352901E0	1.811332703E-1	-1.702991724E0	2.832687503E0
1.022972975E1	5.027635098E-1	4.344552040E0	-5.138109207E0	6.747449133E0
1.024805563E1	5.123374939E0	1.033571815E1	-3.804630995E0	1.214706786E1
1.026640709E1	8.371046066E0	1.694903183E1	-2.568354368E0	1.907722559E1
1.028474574E1	6.120069027E0	1.660471725E1	-2.425983667E0	1.786217447E1
1.030307162E1	3.449184656E0	1.000881100E1	-8.048768997E0	1.329871628E1
1.032142308E1	7.748785019E-1	3.401032448E0	-8.715293884E0	9.387428077E0
1.033976178E1	-2.047271729E0	-7.427988052E-1	-7.804721832E0	8.102885565E0
1.035808766E1	-4.746459484E0	-3.371829033E0	-8.596104622E0	1.038225040E1
1.037643912E1	-7.313132286E0	-3.656818867E0	-4.897613525E0	9.531046443E0
1.039477782E1	-4.847537994E0	-4.899710178E0	-7.936334610E-1	6.937985191E0
1.041310371E1	1.680223227E0	-5.575859070E0	1.464818478E0	6.004918620E0
1.043145516E1	5.578718662E0	-5.034970760E0	1.256906509E0	7.619241855E0
1.044979381E1	6.034965515E0	-4.290953636E0	-1.606885195E0	7.577279981E0
1.046811975E1	5.154114246E0	-2.654823303E0	-4.206948757E0	7.163197490E0
1.048647115E1	5.439299583E0	-8.612480164E-1	-5.110368729E0	7.512895357E0
1.050480985E1	5.062075615E0	4.224653244E-1	-3.406201839E0	6.115987038E0
1.052313574E1	3.118771076E0	3.427858353E-1	-2.145664454E0	3.801067100E0
1.054148719E1	1.263365507E0	-2.173528671E-1	-1.981010914E0	2.359605669E0
1.055982589E1	-1.066862464E0	-6.745824814E-1	-1.299633741E0	1.811713251E0
1.057815178E1	-4.113156796E0	-6.620340347E-1	3.659009933E-2	4.166255720E0
1.059650324E1	-6.637401104E0	-8.105468750E-1	1.034928799E0	6.766325241E0
1.061484193E1	-6.517675400E0	-1.066880703E0	1.727633953E0	6.826642376E0
1.063316782E1	-3.560747623E0	1.738171577E0	2.055384398E0	4.463716959E0
1.065151928E1	-1.631236076E0	4.413929939E0	3.231448174E0	5.708411858E0
1.066985798E1	2.926915884E-1	1.523264885E0	3.428956032E0	3.763474956E0
1.068818386E1	7.928406596E-1	3.457813263E-1	1.018484116E0	1.336215151E0
1.070653532E1	-5.362913609E-1	5.267549515E0	-1.687173843E0	5.557089336E0
1.072487402E1	1.013562918E0	1.350090218E1	-7.457491875E0	1.545690313E1
1.074319990E1	8.951676369E0	1.540479279E1	-9.983895302E0	2.042347463E1
1.076155136E1	1.141796112E1	3.995520592E0	-4.915213585E0	1.305731004E1
1.077989006E1	8.436122894E0	-2.299518585E-1	-2.448647976E0	8.787316101E0
1.079821594E1	3.720283031E0	3.252696991E-2	-4.189639091E-1	3.743941051E0
1.081656740E1	1.823731780E0	-3.284835815E-2	-1.304214001E0	2.242331550E0
1.083490610E1	1.813431740E0	-1.484763622E0	-5.146696568E-1	2.399571325E0
1.085323204E1	2.682466507E0	-1.413643360E0	1.464257002E0	3.367203985E0
1.087158350E1	4.448861122E0	-5.303716660E-1	3.192787170E-1	4.491725536E0
1.088992214E1	4.368925571E0	-2.141141891E-1	-1.236130238E0	4.545478358E0
1.090824808E1	2.545104265E0	-5.891714096E-1	-1.867917180E0	3.211509499E0
1.092659954E1	1.270672441E0	-1.916407585E0	-3.433749914E0	4.132537351E0
1.094493818E1	1.054425120E0	-2.767401218E0	-2.601565599E0	3.941886021E0
1.096327688E1	5.725542307E-1	-2.674447536E0	-1.485952735E0	3.112642527E0
1.098161558E1	-3.809258938E-1	-2.021144390E0	-1.479090810E0	2.533345378E0
1.099995428E1	-7.248238325E-1	-1.044329643E0	-1.320795655E0	1.833165338E0
1.101828016E1	-8.572714329E-1	3.116083145E-1	-1.114199877E0	1.439949797E0
1.103663162E1	-8.435573578E-1	1.237258911E0	-4.484190941E-1	1.563162920E0
1.105497032E1	-2.576018572E-1	1.132331848E0	7.737586498E-1	1.395434190E0
1.107330902E1	-4.199031591E-1	4.985485077E-1	1.467210293E0	1.605482893E0
1.109164766E1	-1.228171110E0	-4.560298920E-1	2.045784473E0	2.429321232E0
1.110998636E1	-1.553456068E0	-1.545121193E0	2.482378960E0	3.311016544E0
1.112832506E1	-8.683660626E-1	-2.329545975E0	2.881900311E0	3.806073235E0
1.114666376E1	2.974019051E-1	-2.083144188E0	3.285926104E0	3.901954377E0
1.116500240E1	3.996883631E-1	-1.157196045E0	2.806706667E0	3.062099898E0
1.118334110E1	-9.554644823E-1	-2.592487335E-1	2.509665251E0	2.697877305E0
1.120167980E1	-1.662259817E0	2.125282288E-1	2.689996719E0	3.169283562E0
1.122001850E1	-1.967465043E0	-4.897270203E-1	3.335775375E0	3.903607127E0
1.123834438E1	-2.536715984E0	-1.918388367E0	3.277483463E0	4.566950817E0
1.125669584E1	-2.776679039E0	-2.938066483E0	3.139708281E0	5.118588597E0
1.127503454E1	-2.335205317E0	-2.527991772E0	2.186600208E0	4.077394602E0
1.129336042E1	-1.929546714E0	-6.477727890E-1	-3.494005203E-1	2.065149106E0
1.131171193E1	-5.108920932E-1	1.614603043E0	-3.442554474E0	3.836552492E0
1.133005058E1	3.076144218E0	5.121341705E0	-4.205806255E0	7.306135119E0
1.134837652E1	7.005754471E0	1.151171017E1	-2.742149115E0	1.375207070E1
1.136672798E1	6.440713882E0	1.419596386E1	-2.397346258E0	1.577198321E1
1.138506667E1	3.297218084E0	1.028493023E1	-5.595287323E0	1.216382658E1
1.140339256E1	5.376031995E-1	4.242637634E0	-7.523271561E0	8.653820328E0
1.142174402E1	-2.119734287E0	5.403089523E-1	-6.818926811E0	7.161212891E0
1.144008272E1	-4.786006451E0	-2.227150917E0	-7.667542458E0	9.308988468E0
1.145840865E1	-6.147080421E0	-4.344422340E0	-5.706077576E0	9.445629914E0
1.147676011E1	-5.693717480E0	-3.929666042E0	-1.606250525E0	7.102164085E0
1.149509876E1	-8.625866175E-1	-3.902059078E0	1.892111301E0	4.421561478E0
1.151342469E1	4.047615051E0	-3.300030231E0	1.884784698E0	5.552098747E0
1.153177615E1	6.000211239E0	-2.628133297E0	8.566589355E-1	6.606321523E0
1.155011485E1	5.910214901E0	-1.385103226E0	-2.965623379E0	6.756039753E0
1.156844074E1	5.354964733E0	-8.937549591E-2	-5.060658932E0	7.368439733E0
1.158679219E1	4.967162609E0	9.932756424E-1	-5.073936462E0	7.169667504E0
1.160513089E1	3.709270477E0	6.907806396E-1	-3.942386866E0	5.456947825E0
1.162345683E1	2.228271008E0	-1.924381256E-1	-2.634019852E0	3.455471704E0
1.164180829E1	9.992321134E-1	-1.089741707E0	-1.467017412E0	2.082820658E0
1.166014699E1	-3.626087904E-1	-1.934774876E0	-4.587485790E-1	2.021209839E0
1.167847287E1	-2.487657070E0	-2.123522758E0	7.694978714E-1	3.360046663E0
1.169682433E1	-4.414388180E0	-1.806616306E0	1.246267796E0	4.929895425E0
1.171516303E1	-5.063390732E0	-1.133426666E0	1.223057032E0	5.330895817E0
1.173348897E1	-3.988817692E0	8.538637161E-1	1.093341589E0	4.223167727E0
1.175184042E1	-2.527706146E0	4.730863571E0	1.001300097E0	5.456461342E0
1.177017912E1	-9.625452757E-1	5.757234573E0	1.449079037E0	6.014322355E0
1.178850501E1	-3.364496231E-1	1.800889015E0	1.679340839E0	2.485273677E0
1.180685647E1	-3.590189219E-1	-9.928250313E-1	-4.511213303E-2	1.056707733E0
1.182519516E1	-1.119882703E0	1.487579346E0	-2.031651258E0	2.755836790E0
1.184352110E1	-8.620332479E-1	6.056316376E0	-4.037870407E0	7.329834022E0
1.186187256E1	3.683756828E0	1.174867249E1	-7.388258934E0	1.435923882E1
1.188021126E1	9.537242889E0	1.055667114E1	-4.302035809E0	1.486303534E1
1.189853714E1	9.956498146E0	1.403488159E0	-2.203051090E0	1.029344784E1
1.191688865E1	6.015846252E0	-2.205530643E0	-8.790132999E-1	6.467413388E0
1.193522730E1	1.570362329E0	-2.902765274E-1	-1.214494467E0	2.006313813E0
1.195355324E1	4.034554958E-1	-6.886129379E-1	-1.638340592E0	1.822395131E0
1.197190469E1	1.545580626E0	-1.195815086E0	-2.022132874E-1	1.964607697E0
1.199024339E1	3.259974480E0	-1.041000366E0	7.735972404E-1	3.508499403E0
1.200856933E1	4.428071976E0	-9.230556488E-1	5.611479282E-1	4.557931565E0
1.202692079E1	3.708601475E0	-9.701862335E-1	-4.402375221E-2	3.833656781E0
1.204525949E1	1.940225363E0	-1.226909637E0	-1.946649909E0	3.009855077E0
1.206359813E1	5.245182514E-1	-2.196062565E0	-2.872547626E0	3.653674869E0
1.208193683E1	3.931383491E-1	-2.767632961E0	-1.431492686E0	3.140624346E0
1.210027553E1	3.818218112E-1	-2.426997185E0	-7.778949738E-1	2.577057202E0
1.211861423E1	8.844339848E-2	-1.571385860E0	-3.093476295E-1	1.603986195E0
1.213695292E1	-4.253859520E-1	-5.652446747E-1	-2.655227184E-1	7.556170091E-1
1.215529162E1	-6.678333282E-1	2.461261749E-1	-2.436382771E-1	7.522892119E-1
1.217363032E1	-6.860991716E-1	7.048425674E-1	3.118152618E-1	1.031873963E0
1.219196902E1	-4.571950436E-1	1.047722816E0	8.631684780E-1	1.432414126E0
1.221030766E1	-7.736641765E-1	1.039403915E0	1.471344948E0	1.960554185E0
1.222864636E1	-1.307366848E0	4.958963394E-1	2.332285881E0	2.719315849E0
1.224698506E1	-1.794099212E0	-6.020793915E-1	2.833071709E0	3.406990884E0
1.226532376E1	-1.832118511E0	-1.957627773E0	3.542035580E0	4.442407094E0
1.228366246E1	-1.148490667E0	-2.417828083E0	4.047152996E0	4.852254200E0
1.230200115E1	-1.009448409E0	-1.466776848E0	3.380058289E0	3.820368365E0
1.232033985E1	-1.701971650E0	-3.865137100E-1	2.876708508E0	3.364751430E0
1.233867855E1	-1.510076284E0	-3.769788742E-1	3.321926832E0	3.668465801E0
1.235701725E1	-1.585189819E0	-1.432557106E0	3.265972137E0	3.902770891E0
1.237535594E1	-2.214134693E0	-1.766138077E0	2.453550339E0	3.747205013E0
1.239369459E1	-2.176367283E0	-7.192182541E-1	1.686843395E0	2.845925172E0
1.241203329E1	-1.495177984E0	7.587509155E-1	-1.466286182E-2	1.676745406E0
1.243037199E1	1.194477081E-2	1.962179184E0	-2.327514648E0	3.044275655E0
1.244869792E1	2.589643955E0	4.251111031E0	-3.468470573E0	6.066999994E0
1.246704938E1	6.016633987E0	9.345460892E0	-3.225396633E0	1.157327556E1
1.248538808E1	7.635044575E0	1.277456760E1	-3.111371517E0	1.520408221E1
1.250371402E1	5.434643745E0	9.860101700E0	-4.315155029E0	1.205726010E1
1.252206548E1	1.666496277E0	4.749019623E0	-5.597097397E0	7.527143980E0
1.254040417E1	-2.116028547E0	1.059592247E0	-7.346636772E0	7.718379649E0
1.255873006E1	-5.872622490E0	-1.629615307E0	-7.238754272E0	9.462711259E0
1.257708157E1	-8.444597244E0	-3.947767258E0	-5.480270863E0	1.081339251E1
1.259542027E1	-5.989763260E0	-5.539626122E0	-2.632924080E0	8.573039758E0
1.261374615E1	4.157702327E-1	-5.711985588E0	3.144023418E-1	5.735720798E0
1.263209766E1	4.966897964E0	-4.512074471E0	5.456023216E-1	6.732501267E0
1.265043636E1	6.477165222E0	-3.725951195E0	2.609734535E-1	7.476930437E0
1.266876225E1	5.978453636E0	-2.247315884E0	-2.513220310E0	6.863571438E0
1.268711376E1	4.943382263E0	4.944496155E-1	-3.618937492E0	6.146398718E0
1.270545240E1	3.675738335E0	2.307808876E0	-3.335999489E0	5.474114239E0
1.272377834E1	2.110505581E0	2.056776047E0	-2.659886360E0	3.969830848E0
1.274212980E1	1.113059163E0	7.190465927E-1	-2.134552717E0	2.512417960E0
1.276046850E1	2.217254639E-1	-4.750108719E-1	-1.913422585E0	1.983931324E0
1.277879443E1	-1.494725466E0	-1.239173889E0	-1.009809017E0	2.188485869E0
1.279714589E1	-3.704113483E0	-1.872038364E0	2.014150620E-1	4.155183794E0
1.281548459E1	-4.541846275E0	-2.335532188E0	1.006122589E0	5.205320437E0
1.283382329E1	-3.452849627E0	-2.022798538E0	1.895720720E0	4.428051662E0
1.285216199E1	-2.237032413E0	6.765336990E-1	1.949237108E0	3.043277373E0
1.287050068E1	-2.596430063E0	4.566501617E0	2.338222027E0	5.749927681E0
1.288882662E1	-1.638673902E0	2.761773109E0	3.484863997E0	4.738873277E0
1.290717808E1	-8.007717133E-2	-1.027851105E-1	1.709402323E0	1.714360940E0
1.292551678E1	-9.254244566E-1	2.807284355E0	-8.770809174E-1	3.083265608E0
1.294384272E1	-1.495838642E0	8.489279747E0	-6.083000183E0	1.055027465E1
1.296219417E1	3.797692299E0	1.661496353E1	-1.061379433E1	2.007815006E1
1.298053287E1	1.049779701E1	1.159364033E1	-4.020499229E0	1.614870435E1
1.299885881E1	1.043668461E1	-1.007652283E-1	-1.989236593E0	1.062504595E1
1.301721027E1	6.375022888E0	-4.167723656E0	4.388570786E-3	7.616485840E0
1.303554896E1	1.772612333E0	-2.931363106E0	1.721584797E-1	3.429968321E0
1.305387490E1	2.795362473E-2	-2.864854813E0	-1.238939166E0	3.121401089E0
1.307222636E1	4.228555560E-1	-2.631768703E0	-4.432234764E-1	2.702121459E0
1.309056506E1	2.332851887E0	-3.874769211E-1	-4.400455952E-1	2.405405666E0
1.310889100E1	5.026892662E0	1.273575783E0	-1.813764572E0	5.493758917E0
1.312724246E1	7.499518394E0	9.917240143E-1	-2.304482460E0	7.908029595E0
1.314558121E1	5.767615318E0	-8.191967010E-2	-3.805058479E0	6.910178530E0
1.316390709E1	3.301723242E0	-1.640270710E0	-2.592737436E0	4.507122339E0
1.318225860E1	1.477815747E0	-2.378483295E0	-5.173983574E-1	2.847599556E0
1.320059730E1	2.122310400E-1	-2.379599094E0	6.759388447E-1	2.482826451E0
1.321892318E1	-7.222601175E-1	-1.855429173E0	-2.123472691E-1	2.002340744E0
1.323727469E1	-9.443951845E-1	-1.274728775E0	-1.088014364E0	1.923692016E0
1.325561339E1	-7.704374194E-1	-7.549066544E-1	-1.012086034E0	1.479113253E0
1.327395209E1	-6.260727644E-1	-9.101867676E-2	-2.366557121E-1	6.754683056E-1
1.329229079E1	-9.072433710E-1	3.538932800E-1	5.446364880E-1	1.115777707E0
1.331062949E1	-1.421524167E0	3.780126572E-1	4.519283772E-1	1.538786465E0
1.332896818E1	-1.529982448E0	5.393428802E-1	3.153457642E-1	1.652628205E0
1.334730688E1	-1.041387081E0	7.652273178E-1	5.895576477E-1	1.420435891E0
1.336564558E1	-6.730635762E-1	6.854305267E-1	1.417944670E0	1.712716168E0
1.338398428E1	3.714323044E-3	1.653938293E-1	2.023312092E0	2.030064220E0
1.340232298E1	6.521607637E-1	-1.235704422E-1	2.878013134E0	2.953564442E0
1.342066167E1	2.531368732E-1	7.970142365E-2	3.362378120E0	3.372835190E0
1.343900037E1	-7.582763433E-1	4.201879501E-1	3.211557388E0	3.326505942E0
1.345733907E1	-1.532193303E0	1.669359207E-1	3.279175282E0	3.623323674E0
1.347567777E1	-1.584730983E0	-8.069696426E-1	3.586254597E0	4.002973186E0
1.349401647E1	-1.536948800E0	-1.636158943E0	3.406147242E0	4.079346361E0
1.351235516E1	-1.737846851E0	-2.276478767E0	2.994050503E0	4.143284406E0
1.353069386E1	-1.892079592E0	-2.723747730E0	2.219001055E0	3.990329881E0
1.354903256E1	-1.868546844E0	-2.956942558E0	1.258590579E0	3.717395169E0
1.356737126E1	-1.856109142E0	-2.243397713E0	1.807121038E-1	2.917298632E0
1.358570996E1	-1.046738029E0	6.494255066E-1	-1.558459520E0	1.986507001E0
1.360403589E1	3.225436687E0	4.963492393E0	-2.878985405E0	6.582420188E0
1.362238735E1	7.513538361E0	1.013831902E1	-2.565024614E0	1.287703857E1
1.364072605E1	5.206985474E0	1.136056042E1	-3.968301773E0	1.311192014E1
1.365905199E1	1.419987321E0	7.098877907E0	-8.218439102E0	1.095231358E1
1.367740344E1	-1.291589141E0	2.041060448E0	-7.687844753E0	8.058355118E0
1.369574214E1	-2.633820534E0	-5.717515945E-1	-5.591246605E0	6.206927508E0
1.371406808E1	-4.147670746E0	-2.131664276E0	-5.797153473E0	7.440037204E0
1.373241954E1	-6.169926643E0	-2.857624054E0	-4.754862785E0	8.297151929E0
1.375075824E1	-6.541718483E0	-2.501628399E0	-2.343335629E0	7.385353561E0
1.376908417E1	-1.114854693E0	-2.335779190E0	2.469764948E0	3.577499729E0
1.378743563E1	4.130727768E0	-1.842511177E0	4.160824776E0	6.145748298E0
1.380577433E1	7.046794415E0	-8.974609375E-1	3.606362343E0	7.966718082E0
1.382410027E1	7.391319752E0	8.034458160E-1	2.138996124E-1	7.437935594E0
1.384245173E1	5.359784126E0	1.635739326E0	-5.980067253E0	8.195372681E0
1.386079042E1	2.849213123E0	1.450901985E0	-5.627667427E0	6.472539893E0
1.387911636E1	1.368700385E0	6.835002899E-1	-4.844547749E0	5.080369699E0
1.389746782E1	6.509715319E-1	-5.150337219E-1	-2.932960510E0	3.048160269E0
1.391580657E1	3.768094182E-1	-1.624659538E0	-1.330268621E0	2.133335079E0
1.393413246E1	9.510219097E-2	-2.398486614E0	-7.044634819E-1	2.501609734E0
1.395248396E1	-5.595663786E-1	-3.000904560E0	1.700322628E-1	3.057360574E0
1.397082266E1	-1.423609972E0	-3.435654640E0	1.003003597E0	3.851805340E0
1.398914855E1	-2.108409882E0	-3.435914040E0	1.885102987E0	4.450225926E0
1.400750006E1	-2.568877697E0	-2.374382496E0	2.425621986E0	4.256814170E0
1.402583876E1	-2.610401869E0	7.282733917E-2	1.755159140E0	3.146440106E0
1.404416464E1	-3.200241804E0	3.694869041E0	7.763888836E-1	4.949382238E0
1.406251615E1	-3.273151159E0	5.479166031E0	8.298118114E-1	6.436098706E0
1.408085485E1	-1.319772124E0	2.841356277E0	1.080329895E0	3.313942763E0
1.409918079E1	-6.226543188E-1	5.037162781E0	-6.689798832E-1	5.119398535E0
1.411753225E1	5.495288372E-1	1.116415691E1	-5.159474850E0	1.231099355E1
1.413587094E1	5.922276497E0	1.623075294E1	-9.069737434E0	1.951335023E1
1.415419688E1	1.091474152E1	6.893657684E0	-5.765523911E0	1.413843572E1
1.417254834E1	1.012311840E1	-2.736515999E0	-3.284339905E0	1.098876401E1
1.419088704E1	5.742513657E0	-4.993712425E0	-9.352695942E-1	7.667356526E0
1.420921298E1	1.342908859E0	-2.324655533E0	-1.127004623E-2	2.684688914E0
1.422756443E1	3.132268786E-1	-2.038034916E0	-1.192965508E-1	2.065412565E0
1.424590318E1	1.394039631E0	-2.369430065E0	1.753303289E0	3.260616161E0
1.426422907E1	2.645741940E0	-1.346888542E0	2.015153408E0	3.588161425E0
1.428258058E1	4.241179943E0	-5.898790359E-1	-6.711394787E-1	4.334281115E0
1.430091928E1	3.946274281E0	1.479587555E-1	-2.475245953E0	4.660666800E0
1.431925798E1	2.429128408E0	-2.304077148E-3	-2.555972099E0	3.526140029E0
1.433759667E1	1.163823247E0	-8.917131424E-1	-2.378326416E0	2.793935114E0
1.435593537E1	4.165951610E-1	-1.662642479E0	-1.257298350E0	2.125730623E0
1.437426131E1	1.524454951E-1	-1.645453453E0	2.367427349E-1	1.669372283E0
1.439261277E1	-7.848590612E-2	-9.773445129E-1	-4.218268394E-1	1.067380071E0
1.441095146E1	-3.088274598E-1	2.449216843E-1	-1.173015356E0	1.237467598E0
1.442927740E1	-8.204340339E-1	8.383817673E-1	1.214337349E-1	1.179297309E0
1.444762891E1	-1.532867670E0	5.521011353E-1	1.698105335E0	2.353308456E0
1.446596761E1	-1.988623381E0	1.212310791E-1	1.913941383E0	2.762696426E0
1.448430631E1	-1.634515524E0	-4.506282806E-1	9.544148445E-1	1.945665578E0
1.450264501E1	-1.238272786E0	-4.822607040E-1	4.756412506E-1	1.411428170E0
1.452098370E1	-1.016079307E0	-1.258926392E-1	2.595987320E-1	1.056246948E0
1.453932240E1	-6.794747114E-1	3.648195267E-1	2.741534710E-1	8.184981956E-1
1.455766115E1	-3.729689121E-2	4.685316086E-1	7.697935104E-1	9.019395629E-1
1.457599985E1	4.753769636E-1	2.492141724E-1	1.684772253E0	1.768204882E0
1.459433855E1	6.130783558E-1	1.183738708E-1	2.339205265E0	2.421106920E0
1.461267725E1	4.679839611E-1	1.321792603E-1	2.871488333E0	2.912374562E0
1.463101594E1	-3.299098015E-1	5.168333054E-1	2.854779959E0	2.919884545E0
1.464935464E1	-1.208373070E0	9.574270248E-1	2.894028187E0	3.279059489E0
1.466769334E1	-1.396706104E0	9.586772919E-1	3.423777342E0	3.819960913E0
1.468603209E1	-1.792529106E0	-1.120901108E-1	4.164113522E0	4.534927365E0
1.470435798E1	-2.455643654E0	-1.474432945E0	3.966805458E0	4.892819617E0
1.472270949E1	-2.565979719E0	-1.771716118E0	2.846900940E0	4.222330504E0
1.474104818E1	-2.539871216E0	-9.939937592E-1	1.003282309E0	2.906121948E0
1.475937412E1	-2.333469868E0	-1.070022583E-3	-5.837044716E-1	2.405367681E0
1.477772563E1	-9.584593177E-1	8.127698898E-1	-1.797434926E0	2.193173835E0
1.479606433E1	2.022853613E0	2.151163101E0	-2.287173510E0	3.735050480E0
1.481439027E1	5.337399006E0	4.584554672E0	-2.531632662E0	7.477642250E0
1.483274173E1	6.099659443E0	5.700772285E0	-3.184606552E0	8.935679541E0
1.485108042E1	4.098122597E0	4.031568527E0	-4.502732277E0	7.302242913E0
1.486940636E1	1.590366125E0	1.331553459E0	-5.669677258E0	6.037179741E0
1.488775787E1	7.792661190E-1	-4.785518646E-1	-5.493830204E0	5.569419887E0
1.490609657E1	-1.102318168E0	-8.853626251E-1	-6.174724579E0	6.334524129E0
1.492442251E1	-3.064610481E0	-1.371794701E0	-4.737523079E0	5.806701562E0
1.494277396E1	-5.252149105E0	-3.532171249E-1	-1.475412369E0	5.466870605E0
1.496111272E1	-4.251938343E0	5.289821625E-1	2.291433811E-1	4.290840068E0
1.497943865E1	5.916644335E-1	1.443099976E-2	1.336690903E0	1.461854174E0
1.499779011E1	3.958853722E0	-5.862607956E-1	1.029357910E0	4.132287770E0
1.501612881E1	4.831286907E0	-3.825149536E-1	-1.107598305E0	4.971360465E0
1.503445475E1	4.002167702E0	3.017196655E-1	-3.553317070E0	5.360451778E0
1.505280626E1	3.132579565E0	7.127084732E-1	-3.808099270E0	4.982231242E0
1.507114496E1	2.428571701E0	4.804153442E-1	-3.223903656E0	4.064764962E0
1.508947089E1	1.907766819E0	-6.770968437E-1	-1.992759466E0	2.840620471E0
1.510782240E1	1.349967360E0	-1.855326653E0	-1.352347612E0	2.663361208E0
1.512616110E1	1.344788671E0	-2.430507660E0	-1.115742683E0	2.993443801E0
1.514449980E1	1.232430577E0	-3.109326839E0	-8.807122707E-1	3.458677873E0
1.516283855E1	4.776101708E-1	-3.411037922E0	-8.468513489E-1	3.546892779E0
1.518117725E1	-4.416244030E-1	-3.237812519E0	-3.413269520E-1	3.285569374E0
1.519950318E1	-1.595030069E0	-2.299547672E0	6.738817692E-1	2.878568578E0
1.521785469E1	-2.904875755E0	-2.658634186E-1	1.779590845E0	3.417006012E0
1.523619339E1	-3.526197910E0	2.534499168E0	1.771940470E0	4.690152531E0
1.525451933E1	-3.351135731E0	5.143280983E0	1.261152267E0	6.266893568E0
1.527287079E1	-1.877402663E0	3.388637543E0	1.983560085E0	4.352242614E0
1.529120954E1	-2.444761992E-1	-3.534994125E-1	8.546078205E-1	9.566007388E-1
1.530953548E1	-8.810446262E-1	-1.780261993E-1	-1.261549950E0	1.549012988E0
1.532788699E1	-1.540174723E0	3.312425613E0	-2.929322720E0	4.682438811E0
1.534622568E1	1.381502748E-1	1.092279339E1	-7.149438858E0	1.305530455E1
1.536455162E1	6.331916809E0	1.984785652E1	-7.047717094E0	2.199320111E1
1.538290313E1	1.063866997E1	1.026643085E1	-3.055636644E0	1.509694726E1
1.540124183E1	9.494649887E0	-1.663883686E0	-1.265835643E0	9.722099839E0
1.541956777E1	6.590080261E0	-6.788540840E0	-5.843532085E-1	9.479183154E0
1.543791928E1	3.309912205E0	-6.158050537E0	3.675472736E-1	7.000871104E0
1.545625798E1	2.334604502E0	-5.502215385E0	1.301045418E0	6.116982222E0
1.547459667E1	2.647822857E0	-4.375720978E0	-1.945946217E-1	5.118180050E0
1.549293542E1	2.709563017E0	-2.621583462E0	-1.145447612E0	3.940365696E0
1.551127412E1	2.321936846E0	-1.157389641E0	-1.852353692E0	3.187813623E0
1.552961282E1	2.477236748E0	-7.977600098E-1	-5.011370182E-1	2.650332290E0
1.554795157E1	2.354303360E0	-2.687921524E-1	-4.978296757E-1	2.421327718E0
1.556629027E1	6.729691625E-1	6.760749817E-1	-1.316069961E0	1.625424565E0
1.558461621E1	-1.088207722E0	9.917211533E-1	1.595053673E-1	1.480928376E0
1.560296772E1	-2.021279097E0	1.178296089E0	1.125789881E0	2.596411700E0
1.562130641E1	-2.013637543E0	8.637695312E-1	3.169927597E-1	2.213892131E0
1.563964516E1	-1.622933269E0	1.514730453E-1	-2.896733284E-1	1.655526235E0
1.565798386E1	-1.746692896E0	-1.064424515E-1	1.780416965E-1	1.758967002E0
1.567632256E1	-1.811307907E0	-1.632242203E-1	1.603834629E-1	1.825705709E0
1.569466131E1	-1.369158149E0	-1.933574677E-1	-2.538037300E-1	1.405844045E0
1.571300001E1	-5.329360366E-1	1.290168762E-1	-6.361725330E-1	8.398700288E-1
1.573133876E1	4.374803305E-1	1.767854691E-1	-2.291629314E-1	5.245548501E-1
1.574967746E1	5.734628439E-1	-3.049135208E-1	4.271979332E-1	7.773866237E-1
1.576801615E1	2.888890505E-1	-3.865747452E-1	8.625941277E-1	9.884156748E-1
1.578635490E1	6.921926737E-1	-4.620895386E-1	1.130986929E0	1.404204000E0
1.580469360E1	7.929195166E-1	-5.123815536E-1	1.391864061E0	1.681826918E0
1.582303235E1	2.049041986E-1	-5.335760117E-1	1.430091619E0	1.540081534E0
1.584137105E1	-6.774015427E-1	-1.308517456E-1	1.552265644E0	1.698682919E0
1.585970975E1	-1.461523533E0	6.052379608E-1	1.854276180E0	2.437355981E0
1.587804850E1	-1.590754390E0	4.127120972E-1	2.725271702E0	3.182441932E0
1.589638719E1	-1.366674542E0	-2.429437637E-1	3.405153275E0	3.677212232E0
1.591472594E1	-1.674614429E0	-7.717580795E-1	3.566550732E0	4.015000391E0
1.593306464E1	-2.294285059E0	-1.303339958E0	2.967205048E0	3.970736049E0
1.595140334E1	-2.420343161E0	-1.409508705E0	2.345005989E0	3.652920598E0
1.596974209E1	-2.194170475E0	-5.567531586E-1	1.463731289E0	2.695712789E0
1.598808079E1	-1.878047228E0	1.074703217E0	4.729117155E-1	2.214880106E0
1.600641954E1	-6.015596390E-1	2.527275085E0	-1.047693372E0	2.801188098E0
1.602474548E1	2.344737291E0	3.594785690E0	-2.395042896E0	4.914927019E0
1.604309699E1	5.595462322E0	4.928851128E0	-2.547646999E0	7.879928761E0
1.606143568E1	5.064763069E0	4.295438766E0	-3.055369616E0	7.310123298E0
1.607976162E1	1.869355321E0	1.519403458E0	-4.782430649E0	5.354878065E0
1.609811313E1	4.229279160E-1	-6.582059860E-1	-6.119781494E0	6.169589020E0
1.611645183E1	3.275081515E-2	-1.521551132E0	-5.884279251E0	6.077905294E0
1.613479058E1	-1.363799274E-1	-9.506158829E-1	-6.031981468E0	6.107951414E0
1.615312928E1	-4.489973187E-1	-7.704000473E-1	-2.914073944E0	3.047448404E0
1.617146803E1	-1.909148693E0	-7.522678375E-2	6.374645233E-1	2.014167029E0
1.618979396E1	-1.715809584E0	1.833848953E-1	2.585637808E0	3.108561632E0
1.620814548E1	1.154397130E0	-3.895015717E-1	1.555214882E0	1.975610674E0
1.622648417E1	2.760405064E0	-2.911281586E-2	-5.237720013E-1	2.809807962E0
1.624481011E1	2.783161163E0	1.787023544E-1	-2.292375088E0	3.610111374E0
1.626316162E1	1.853404284E0	5.636396408E-1	-3.195478916E0	3.736827878E0
1.628150037E1	1.053840041E0	1.021495819E0	-3.107848167E0	3.436968544E0
1.629983907E1	9.190496802E-1	7.488231659E-1	-2.034984589E0	2.355111616E0
1.631817782E1	1.352636814E0	-3.121681213E-1	-1.254262209E0	1.870895234E0
1.633651652E1	2.035843849E0	-1.727609158E0	-9.072570801E-1	2.820001594E0
1.635484246E1	2.369928837E0	-3.069062233E0	-5.852999687E-1	3.921515235E0
1.637319397E1	2.108291864E0	-3.678630829E0	-1.290004253E-1	4.241917075E0
1.639153272E1	1.578480840E0	-3.775776863E0	-8.690357208E-3	4.092452590E0
1.640987141E1	5.597887635E-1	-3.411938190E0	-2.248253822E-1	3.464856725E0
1.642821016E1	-1.311422944E0	-2.572283745E0	-4.935021400E-1	2.929166804E0
1.644654886E1	-3.318223476E0	-1.074168205E0	-5.123808384E-1	3.525191980E0
1.646487480E1	-4.490888596E0	1.558708191E0	-1.043987274E-2	4.753710192E0
1.648322631E1	-4.689392567E0	4.669919968E0	1.212305784E0	6.728167690E0
1.650156506E1	-3.397564411E0	6.355766296E0	2.492858648E0	7.625847716E0
1.651989100E1	-9.306343794E-1	3.604010582E0	2.814800739E0	4.666698600E0
1.653824251E1	-2.169784307E-1	4.275760651E-1	1.155141592E0	1.250701015E0
1.655658120E1	-4.740658998E-1	8.782110214E-1	-1.394633532E0	1.714933166E0
1.657490719E1	-1.037769079E0	3.571323395E0	-1.967533469E0	4.207434302E0
1.659325865E1	-2.302386761E-1	5.285569191E0	-2.501211882E0	5.852034894E0
1.661159740E1	2.410523415E0	7.827437401E0	-4.475549221E0	9.333270607E0
1.662992334E1	4.539402008E0	8.041082382E0	-2.816068172E0	9.653777314E0
1.664827485E1	5.587974072E0	2.202379227E0	-1.218705893E0	6.128717038E0
1.666661360E1	5.249817848E0	-1.821047306E0	-1.248805523E0	5.695288927E0
1.668493954E1	3.403369188E0	-2.488017082E0	-1.945290804E0	4.642984724E0
1.670329105E1	2.403225422E0	-2.689472675E0	-1.486185431E0	3.900961784E0
1.672162975E1	2.491095543E0	-2.820602417E0	-5.330085754E-1	3.800717451E0
1.673996850E1	2.955903530E0	-2.385512352E0	3.903505802E-1	3.818430101E0
1.675830719E1	2.794769049E0	-1.765524387E0	1.122211218E0	3.491012520E0
1.677664594E1	2.272033215E0	-1.835921288E0	4.811642170E-1	2.960449443E0
1.679498464E1	1.759095788E0	-1.705733299E0	-6.619075537E-1	2.538122473E0
1.681332339E1	9.523690343E-1	-1.173568726E0	-1.836643457E0	2.378556184E0
1.683166214E1	3.418909311E-1	-7.425832748E-1	-2.321731329E0	2.461453979E0
1.684998808E1	-4.245834947E-1	-5.578880310E-1	-6.514649391E-1	9.570354048E-1
1.686833959E1	-1.306624651E0	-5.226659775E-1	9.543824196E-2	1.410516274E0
1.688667829E1	-2.014186621E0	-1.885938644E-1	-4.108171463E-1	2.064288283E0
1.690501704E1	-1.498133779E0	1.004514694E-1	-2.307653427E-3	1.501499464E0
1.692335574E1	-6.567251086E-1	5.466127396E-1	4.244444370E-1	9.540578785E-1
1.694169449E1	-3.035235405E-1	1.084469795E0	5.656762123E-1	1.260234444E0
1.696003324E1	-9.340918064E-2	1.174951553E0	1.943032742E-1	1.194566947E0
1.697837193E1	4.722555876E-1	4.062986374E-1	4.281928539E-1	7.559451322E-1
1.699671068E1	6.810802221E-1	-5.833759308E-1	1.315938354E0	1.592448271E0
1.701504938E1	6.544649601E-2	-1.138217926E0	2.269259930E0	2.539559788E0
1.703338813E1	-3.368123770E-1	-1.371749878E0	2.665525913E0	3.016648587E0
1.705172688E1	-5.001394749E-1	-1.692085743E0	2.964297771E0	3.449689107E0
1.707006558E1	-9.484155178E-1	-1.640685558E0	2.817722321E0	3.395717917E0
1.708840433E1	-1.468204975E0	-1.114672661E0	2.188517570E0	2.861421001E0
1.710674303E1	-1.870194316E0	-7.759838104E-1	1.889387846E0	2.769397784E0
1.712508178E1	-1.518940210E0	-6.581125259E-1	2.800690174E0	3.253330126E0
1.714342053E1	-1.497318745E0	-1.506641388E0	3.801619053E0	4.354794957E0
1.716175923E1	-1.790835619E0	-1.620729446E0	3.282800674E0	4.075614852E0
1.718008516E1	-1.959750414E0	-5.091094971E-2	2.360020638E0	3.068046776E0
1.719843673E1	-1.852566004E0	2.085726738E0	2.923161983E-1	2.804943062E0
1.721677542E1	-9.481346607E-1	3.612760544E0	-1.519823074E0	4.032475699E0
1.723510136E1	1.645498753E0	4.614212990E0	-2.938267708E0	5.712446480E0
1.725345287E1	5.546594143E0	7.377247810E0	-3.567150116E0	9.895102414E0
1.727179162E1	7.107624054E0	9.537260056E0	-2.394252300E0	1.213301665E1
1.729011756E1	3.946760178E0	6.367794037E0	-3.413094759E0	8.232553227E0
1.730846907E1	7.884719968E-1	2.769736290E0	-4.308162689E0	5.182025952E0
1.732680782E1	-1.061572313E0	7.210454941E-1	-4.886013985E0	5.051729906E0
1.734513376E1	-3.092151165E0	-6.025505066E-1	-5.947777748E0	6.730566550E0
1.736348527E1	-4.840461731E0	-2.184545994E0	-5.559181213E0	7.688095130E0
1.738182402E1	-4.870737076E0	-3.361321449E0	-2.738335609E0	6.520816165E0
1.740014996E1	-1.691333294E0	-4.793684959E0	-4.287188053E-1	5.101355076E0
1.741850147E1	2.516036987E0	-5.379227638E0	7.251994610E-1	5.982678862E0
1.743684022E1	4.998012066E0	-4.347723007E0	9.322669506E-1	6.689689202E0
1.745516615E1	5.094277859E0	-2.999363899E0	-5.006685257E-1	5.932834034E0
1.747351766E1	4.057085037E0	-7.347497940E-1	-2.194105387E0	4.670534735E0
1.749185641E1	3.029251337E0	1.655837059E0	-2.969156742E0	4.553465909E0
1.751018235E1	1.752982020E0	2.676745415E0	-3.404876709E0	4.672375989E0
1.752853386E1	8.786937594E-1	2.068095207E0	-3.232429028E0	3.936714103E0
1.754687261E1	6.638917327E-1	6.079549789E-1	-2.600152969E0	2.751573541E0
1.756519855E1	5.957825780E-1	-5.234012604E-1	-1.920971870E0	2.078229700E0
1.758355006E1	2.081470490E-1	-1.531875134E0	-7.509965897E-1	1.718709544E0
1.760188881E1	-8.257706165E-1	-2.335827827E0	7.627134323E-1	2.592242375E0
1.762021475E1	-1.918644905E0	-2.709462166E0	1.351869822E0	3.584680671E0
1.763856626E1	-2.668376207E0	-2.260716438E0	8.471772671E-1	3.598441290E0
1.765690501E1	-2.980446339E0	-5.677175522E-1	4.404196739E-1	3.065833180E0
1.767523100E1	-3.560519457E0	2.617864609E0	7.442436218E-1	4.481563620E0
1.769358251E1	-4.174573421E0	4.632969856E0	2.084612608E0	6.575491059E0
1.771192126E1	-2.478251457E0	2.270133972E0	3.055641413E0	4.542266282E0
1.773024719E1	-1.832431555E0	4.078454971E-1	1.575681448E0	2.450900932E0
1.774859871E1	-2.206626177E0	2.905939102E0	-1.064266920E0	3.800834807E0
1.776693746E1	-1.097915053E0	6.805046082E0	-3.329507113E0	7.655043256E0
1.778526339E1	3.254585028E0	1.378166199E1	-7.321202278E0	1.594134667E1
1.780361490E1	1.038349438E1	9.014780998E0	-3.260793686E0	1.413209140E1
1.782195365E1	9.904226303E0	-1.278429031E0	-8.352882862E-1	1.002126669E1
1.784027959E1	3.887810230E0	-2.080836773E0	-1.480905414E0	4.651669690E0
1.785863110E1	1.562190056E-2	6.598443985E-1	-2.978204489E0	3.050465645E0
1.787696985E1	1.814251900E0	-6.507282257E-1	-2.622529268E0	3.254630078E0
1.789529584E1	4.258816242E0	-2.152324200E0	-2.352285385E-2	4.771851692E0
1.791364735E1	5.621782303E0	-2.758925438E0	8.822131157E-1	6.324113046E0
1.793198605E1	5.620483398E0	-2.902968407E0	1.561398983E0	6.515752143E0
1.795031204E1	3.044397831E0	-2.159497261E0	2.655677795E-1	3.741966437E0
1.796866355E1	3.419674933E-1	-1.893162727E0	-6.110391617E-1	2.018508295E0
1.798700230E1	-8.790125847E-1	-1.904890060E0	-5.276628733E-1	2.163260820E0
1.800534100E1	-7.116368413E-1	-1.699570656E0	-5.574282408E-1	1.925017832E0
1.802367975E1	-3.200920224E-1	-9.785108566E-1	-4.125690460E-1	1.109123806E0
1.804201850E1	-4.048726559E-1	3.394603729E-2	-1.173314571E0	1.241668750E0
1.806035725E1	-3.641883731E-1	5.040779114E-1	-7.535299063E-1	9.770030867E-1
1.807869600E1	-2.720546722E-1	4.773483276E-1	5.768606663E-1	7.966450897E-1
1.809703469E1	-6.600134373E-1	5.915622711E-1	3.676385880E-1	9.595424896E-1
1.811537344E1	-1.221570253E0	7.194852829E-1	1.623101234E-1	1.426967951E0
1.813371219E1	-1.231403351E0	6.692256927E-1	2.208352089E-1	1.418797177E0
1.815205094E1	-3.494563103E-1	6.224412918E-1	9.384536743E-2	7.199721019E-1
1.817038969E1	4.578404427E-1	4.819488525E-1	4.462749958E-1	8.006584411E-1
1.818872839E1	1.237043142E-1	2.380523682E-1	1.421742439E0	1.446832143E0
1.820706714E1	-6.813938618E-1	-5.113849640E-1	2.418832541E0	2.564481046E0
1.822539308E1	-1.312468529E0	-1.509795189E0	2.559468746E0	3.248528192E0
1.824374464E1	-1.131689906E0	-2.037779808E0	2.586906195E0	3.482147649E0
1.826208334E1	-8.838348389E-1	-2.035921097E0	2.534421206E0	3.368891447E0
1.828042209E1	-1.388528109E0	-1.415009499E0	2.019014835E0	2.829608294E0
1.829876084E1	-1.546707630E0	-4.588642120E-1	2.282279015E0	2.794934410E0
1.831709959E1	-1.580332518E0	1.705036163E-1	3.241997719E0	3.610688516E0
1.833543834E1	-2.034982681E0	-2.272853851E-1	2.866315842E0	3.522581392E0
1.835377704E1	-2.114961386E0	2.669076920E-1	2.324373722E0	3.153888803E0
1.837211579E1	-2.186835766E0	1.199753761E0	1.498048902E0	2.909606548E0
1.839044178E1	-1.769546628E0	2.518337250E0	1.842029095E-1	3.083382637E0
1.840879329E1	-1.637726426E-1	3.120697021E0	-1.011537790E0	3.284627845E0
1.842713204E1	2.492624760E0	3.584248543E0	-2.314742088E0	4.941462005E0
1.844545798E1	6.092224598E0	4.781058311E0	-3.401175737E0	8.458233594E0
1.846380949E1	7.067037106E0	5.282420158E0	-2.828424931E0	9.265363661E0
1.848214824E1	3.961926460E0	2.733385086E0	-3.147755146E0	5.751227501E0
1.850047423E1	1.055606842E0	9.985647202E-1	-4.009710789E0	4.264881934E0
1.851882574E1	-7.442151904E-1	4.337081909E-1	-4.884721756E0	4.960087265E0
1.853716449E1	-2.585216999E0	-1.012802124E-2	-5.621289253E0	6.187272612E0
1.855549042E1	-3.859673977E0	-1.261174202E0	-4.600669861E0	6.136269774E0
1.857384193E1	-4.326423168E0	-1.968522549E0	-2.283746719E0	5.273378190E0
1.859218068E1	-1.121152639E0	-3.150531292E0	8.508250713E-1	3.450613563E0
1.861050667E1	2.862475157E0	-3.489559174E0	1.423849344E0	4.732666712E0
1.862885818E1	4.361498833E0	-2.293872833E0	3.926928043E-1	4.943554620E0
1.864719693E1	3.740213394E0	-8.307771683E-1	-1.643889427E0	4.169143723E0
1.866552287E1	2.859869003E0	9.316339493E-1	-2.949295044E0	4.212497334E0
1.868387438E1	2.066060066E0	2.056223869E0	-3.655928373E0	4.675732356E0
1.870221313E1	1.310484529E0	2.002079964E0	-3.141727448E0	3.949195517E0
1.872055188E1	9.311381578E-1	9.367923737E-1	-2.321558952E0	2.670998725E0
1.873889063E1	1.024134755E0	-3.199014664E-1	-1.541192770E0	1.877888202E0
1.875722938E1	1.152469158E0	-1.477929592E0	-6.180369854E-1	1.973431214E0
1.877555532E1	6.519744992E-1	-2.109780312E0	3.759410381E-1	2.239994503E0
1.879390683E1	-2.811907530E-1	-2.321833134E0	8.023788929E-1	2.472607779E0
1.881224558E1	-1.256008387E0	-2.236050606E0	3.393146992E-1	2.587008667E0
1.883057157E1	-2.049993992E0	-1.608442783E0	-8.171529770E-1	2.730806207E0
1.884892308E1	-2.917086601E0	-6.234169006E-2	-1.545857549E0	3.301962490E0
1.886726183E1	-3.445883751E0	1.903853416E0	-6.602890491E-1	3.991835954E0
1.888558777E1	-3.770795345E0	3.359797478E0	1.475624800E0	5.261616213E0
1.890393928E1	-2.797228813E0	2.285571098E0	2.956152201E0	4.667671809E0
1.892227803E1	-1.821237087E0	-1.103181839E-1	3.054137468E0	3.557643926E0
1.894060402E1	-1.365808725E0	-1.847804070E0	1.497162342E0	2.742500398E0
1.895895553E1	-1.416894317E0	-3.423776627E-1	-1.239778996E-1	1.462936256E0
1.897729428E1	-1.466810703E0	3.420222282E0	-1.657310963E0	4.073835260E0
1.899562022E1	-3.902574778E-1	1.040462112E1	-5.087365150E0	1.158834439E1
1.901397178E1	5.056620598E0	1.443103409E1	-5.248876572E0	1.616709195E1
1.903231048E1	8.912368774E0	5.704667091E0	-8.674230576E-1	1.061724854E1
1.905063646E1	7.101360321E0	-2.224499702E0	-5.530250072E-1	7.462141381E0
1.906898798E1	3.073072910E0	-1.938985825E0	-1.324127793E0	3.867396741E0
1.908732673E1	1.626492620E0	-2.483749390E0	-1.504090548E0	3.328179329E0
1.910565266E1	2.299449921E0	-3.659097672E0	-3.115782738E-1	4.332845108E0
1.912400417E1	3.090465069E0	-3.556747437E0	-3.938051462E-1	4.728267036E0
1.914234292E1	2.559166670E0	-2.943017960E0	-3.023306131E-1	3.911788920E0
1.916068167E1	1.335617542E0	-2.153204918E0	2.558128834E-1	2.546685271E0
1.917902042E1	4.103064537E-1	-1.992014408E0	3.587124348E-1	2.065223329E0
1.919735917E1	5.614186525E-1	-1.889558315E0	2.838225365E-1	1.991526239E0
1.921569792E1	9.039210677E-1	-1.302133560E0	-1.039306283E0	1.895463705E0
1.923403662E1	2.460794449E-1	-5.823936462E-1	-1.162792683E0	1.323564987E0
1.925237537E1	-1.194157600E0	-4.026803970E-1	-6.929961443E-1	1.438195930E0
1.927071412E1	-2.121229172E0	-6.895542145E-2	3.229930401E-1	2.146786564E0
1.928905287E1	-1.719808340E0	3.363952637E-1	3.245849609E-1	1.782205908E0
1.930739162E1	-7.685968876E-1	8.060665131E-1	-1.246240139E-1	1.120720993E0
1.932573037E1	-9.440672398E-2	1.205397606E0	-1.679968834E-1	1.220704293E0
1.934406907E1	4.535257816E-2	1.118123055E0	6.906557083E-2	1.121171742E0
1.936240782E1	2.445588112E-1	7.726316452E-1	6.847000122E-2	8.132999523E-1
1.938074657E1	7.000374794E-1	2.369632721E-1	-5.101227760E-2	7.408146309E-1
1.939908532E1	7.081718445E-1	-4.745769501E-2	5.995819569E-1	9.291168479E-1
1.941742407E1	6.676435471E-2	-1.575450897E-1	1.410044074E0	1.420388054E0
1.943576277E1	-3.114225864E-1	-1.048770905E0	2.240861893E0	2.493665266E0
1.945410152E1	-2.856359482E-1	-1.949589252E0	2.716395378E0	3.355784558E0
1.947244027E1	-2.554452419E-1	-1.849078655E0	2.813626289E0	3.376512556E0
1.949077902E1	-8.930964470E-1	-1.104290962E0	2.866494656E0	3.199042263E0
1.950911772E1	-1.817088127E0	3.947448730E-2	2.480549812E0	3.075141439E0
1.952745646E1	-1.638284922E0	1.003739357E0	2.885530472E0	3.466663567E0
1.954579522E1	-1.566333890E0	6.312208176E-1	3.438117981E0	3.830469531E0
1.956413396E1	-2.248906136E0	1.221590042E-1	2.998730659E0	3.750318279E0
1.958247272E1	-2.064142942E0	4.747762680E-1	2.441005230E0	3.231811431E0
1.960081141E1	-1.492719769E0	1.247699738E0	1.519262075E0	2.468425449E0
1.961915016E1	-7.633898854E-1	1.975215912E0	3.809959888E-1	2.151604043E0
1.963748891E1	3.148680925E-1	2.207712173E0	-6.287070513E-1	2.316982415E0
1.965581485E1	2.105489492E0	2.481395721E0	-1.859061837E0	3.747868947E0
1.967416641E1	4.968085766E0	3.419355392E0	-3.053748846E0	6.760122003E0
1.969250511E1	6.772377968E0	3.984352112E0	-3.247027874E0	8.501961839E0
1.971083110E1	4.835221291E0	2.628312111E0	-2.562208652E0	6.070609744E0
1.972918261E1	1.326571703E0	1.563766479E0	-2.851435661E0	3.512241936E0
1.974752136E1	-1.117418528E0	1.595631599E0	-4.205668449E0	4.634901452E0
1.976584730E1	-3.000834227E0	6.930627823E-1	-5.383905888E0	6.202562751E0
1.978419881E1	-4.867366791E0	-2.247028351E-1	-4.204558849E0	6.435842288E0
1.980253756E1	-4.153782368E0	-1.557057858E0	-2.587541342E0	5.135533792E0
1.982086355E1	-4.701973200E-1	-3.431605339E0	-8.809003830E-1	3.573931478E0
1.983921506E1	2.542081833E0	-3.841878414E0	-2.264282703E-1	4.612318241E0
1.985755376E1	3.795585394E0	-3.255992889E0	-4.463243484E-2	5.000994924E0
1.987589251E1	3.110935450E0	-2.206155777E0	-9.554908276E-1	3.931667001E0
1.989423126E1	2.388656139E0	-2.908048630E-1	-2.375174046E0	3.381079320E0
1.991257001E1	1.963496685E0	9.944496155E-1	-2.908687115E0	3.647562200E0
1.993090876E1	1.525993824E0	1.233308792E0	-2.502058029E0	3.179622951E0
1.994924746E1	1.238439322E0	4.604558945E-1	-2.206247568E0	2.571629817E0
1.996758620E1	1.268812537E0	-8.069062233E-1	-1.802591085E0	2.347406554E0
1.998592496E1	1.194512248E0	-1.788606644E0	-1.006177425E0	2.374524426E0
2.000426370E1	3.848603368E-1	-2.285735130E0	2.336425781E-1	2.329654785E0
2.002260246E1	-9.523712993E-1	-2.464824677E0	9.182701111E-1	2.797425919E0
2.004092839E1	-2.855333805E0	-2.182379723E0	6.806106567E-1	3.657723781E0
2.005927990E1	-4.508747578E0	-1.250626087E0	6.898760796E-2	4.679490316E0
2.007761865E1	-4.791244030E0	1.327695847E0	1.808099747E-1	4.975086719E0
2.009594459E1	-3.970272303E0	4.673622131E0	2.226943493E0	6.524192157E0
2.011429615E1	-2.459414244E0	4.210054398E0	3.937646866E0	6.267243357E0
2.013263485E1	-1.225779533E0	1.292088509E0	3.669323206E0	4.078720506E0
2.015096084E1	-6.526269913E-1	-2.390890121E-1	4.142906666E-1	8.091491222E-1
2.016931235E1	-1.740511656E0	1.723830223E0	-1.110268593E0	2.689547882E0
2.018765110E1	-1.418540716E0	4.761138916E0	-2.698342800E0	5.653472863E0
2.020597704E1	1.553950787E0	1.052718353E1	-6.854922295E0	1.265805340E1
2.022432855E1	6.844651222E0	1.079309845E1	-4.160382271E0	1.344057310E1
2.024266730E1	7.930483341E0	1.100765228E0	-7.048525810E-1	8.037478913E0
2.026099329E1	4.013201714E0	-1.782430172E0	-5.372693539E-1	4.423969221E0
2.027934480E1	1.031555176E0	-4.038581848E-1	-1.762171268E0	2.081455042E0
2.029768350E1	2.234200239E0	-1.224067688E0	-2.153537273E0	3.335823017E0
2.031600949E1	4.234250069E0	-1.663549900E0	-5.615968704E-1	4.583848051E0
2.033436100E1	4.987117290E0	-1.793615341E0	8.407649994E-1	5.366123428E0
2.035269975E1	4.218913555E0	-1.780680180E0	1.443789244E0	4.801518600E0
2.037102568E1	1.795936465E0	-2.259613037E0	1.644241810E-1	2.891067999E0
2.038937719E1	-3.185419738E-1	-2.667412758E0	-8.325957060E-1	2.812432296E0
2.040771594E1	-1.446108580E0	-2.608991623E0	-1.393810034E0	3.292533025E0
2.042605469E1	-1.267762065E0	-2.240800858E0	-1.098209262E0	2.799012812E0
2.044439344E1	-5.997873545E-1	-1.695729256E0	-5.723726749E-1	1.887552134E0
2.046273219E1	-4.185525179E-1	-7.059812546E-1	-9.708198309E-1	1.271254060E0
2.048107094E1	-4.293772578E-1	-1.410808563E-1	-4.309451580E-1	6.244856818E-1
2.049940964E1	-3.545833826E-1	7.538223267E-2	5.566856861E-1	6.643122830E-1
2.051774839E1	-6.436260939E-1	4.341211319E-1	8.862056732E-1	1.178166457E0
2.053608714E1	-8.605775833E-1	5.547790527E-1	6.526088715E-1	1.214195995E0
2.055442589E1	-7.259535789E-1	5.787096024E-1	5.864701271E-1	1.098116848E0
2.057276464E1	-4.291839600E-1	5.704107285E-1	7.398655415E-1	1.028089631E0
2.059110334E1	-4.255754948E-1	2.892313004E-1	1.500141740E0	1.585936470E0
2.060944209E1	-6.155900955E-1	-4.425611496E-1	2.518730640E0	2.630364153E0
2.062778084E1	-6.548993587E-1	-1.281411171E0	3.213670969E0	3.521162998E0
2.064611959E1	-7.663872242E-1	-1.607946873E0	3.777597666E0	4.176492146E0
2.066445834E1	-1.099815845E0	-1.252191544E0	3.777884483E0	4.129163320E0
2.068279704E1	-1.262822747E0	1.044311523E-1	3.319504261E0	3.553130408E0
2.070113579E1	-1.106610894E0	8.384952545E-1	3.687258959E0	3.939992461E0
2.071947454E1	-1.678233266E0	-2.554330826E-1	3.890536547E0	4.244760014E0
2.073781329E1	-2.516065598E0	-9.368028641E-1	3.344216347E0	4.288585859E0
2.075615204E1	-2.332471371E0	-4.258880615E-1	2.620579720E0	3.534012083E0
2.077449074E1	-2.078094244E0	6.898660660E-1	1.047026753E0	2.427067345E0
2.079282949E1	-1.206817389E0	1.634324074E0	-7.150630951E-1	2.153773112E0
2.081115548E1	1.196383119E0	1.904123306E0	-1.821116447E0	2.893697159E0
2.082950699E1	4.664645195E0	3.889308929E0	-2.362039804E0	6.516507560E0
2.084784574E1	7.521304131E0	7.510581017E0	-2.513509035E0	1.092229695E1
2.086617167E1	7.174635410E0	8.116019249E0	-2.793988705E0	1.118711467E1
2.088452324E1	3.750873566E0	5.442569733E0	-3.587438822E0	7.520660549E0
2.090286199E1	4.301518798E-1	3.408368111E0	-4.669755459E0	5.797294185E0
2.092118792E1	-2.680862665E0	2.146780968E0	-5.697773457E0	6.652842664E0
2.093953943E1	-6.210026264E0	2.729015350E-1	-5.860782146E0	8.543282087E0
2.095787818E1	-8.143531799E0	-2.060392380E0	-4.543521881E0	9.550178952E0
2.097620417E1	-3.811513424E0	-4.587057590E0	-2.019886017E0	6.296719101E0
2.099455568E1	1.353161216E0	-5.817422867E0	1.904432774E-1	5.975761268E0
2.101289443E1	4.269651890E0	-4.552589417E0	7.606551647E-1	6.287654088E0
2.103122037E1	5.541955471E0	-3.855637074E0	5.010447502E-1	6.769804541E0
2.104957188E1	5.727634430E0	-2.645391941E0	-9.367237091E-1	6.378193004E0
2.106791063E1	5.143771172E0	-6.066703796E-1	-2.982410431E0	5.976721743E0
2.108623662E1	3.495658398E0	7.651052475E-1	-4.016002178E0	5.378967110E0
2.110458813E1	1.613164067E0	2.362861633E-1	-3.494802952E0	3.856394317E0
2.112292688E1	8.588498235E-1	-8.789110184E-1	-2.125780344E0	2.455412321E0
2.114126563E1	4.470909238E-1	-1.522580147E0	-1.288787603E0	2.044288161E0
2.115960438E1	-4.827970862E-1	-1.764295101E0	-6.635854244E-1	1.945809818E0
2.117794313E1	-2.386092901E0	-1.692897797E0	5.126533508E-1	2.970211397E0
2.119626907E1	-3.974422455E0	-1.756560326E0	1.774329424E0	4.693589557E0
2.121462063E1	-4.058249950E0	-1.210927963E0	2.452575922E0	4.893962387E0
2.123295938E1	-3.712391376E0	8.220043182E-1	1.936325550E0	4.266954121E0
2.125128532E1	-3.962885380E0	4.327167511E0	9.423773289E-1	5.942803567E0
2.126963683E1	-3.041012287E0	5.177020073E0	1.004882336E0	6.087617028E0
2.128797558E1	-2.417947769E0	2.386854172E0	2.393901825E0	4.156237505E0
2.130630157E1	-1.678706169E0	6.759347916E-1	1.756639004E0	2.522047350E0
2.132465308E1	-1.152022362E0	3.389609337E0	-8.846426010E-2	3.581121738E0
2.134299183E1	-2.466750145E-2	6.356984138E0	-1.873573422E0	6.627377550E0
2.136131782E1	3.320225716E0	8.520562172E0	-4.881354809E0	1.036588169E1
2.137966933E1	7.632409096E0	8.202976227E0	-3.869575739E0	1.185394888E1
2.139800808E1	7.715608120E0	1.157347679E0	-1.887514472E0	8.027002753E0
2.141633402E1	3.105381489E0	2.297401428E-2	-1.479545593E0	3.439909470E0
2.143468558E1	1.363330483E0	4.584541321E-1	-2.077475548E0	2.526807244E0
2.145302433E1	3.136503935E0	-4.176435471E-1	-1.764960885E0	3.623143661E0
2.147135027E1	4.954881668E0	-2.021301746E0	-6.773284674E-1	5.394004723E0
2.148970183E1	5.533693314E0	-2.232380867E0	5.040557384E-1	5.988268382E0
2.150804058E1	4.605969906E0	-2.174159050E0	1.374219179E0	5.275453033E0
2.152636652E1	2.076507568E0	-2.382271767E0	8.935465813E-1	3.284132754E0
2.154471808E1	-5.150367618E-1	-2.527964592E0	-1.036786556E0	2.780430580E0
2.156305678E1	-9.812255502E-1	-3.155436039E0	-2.223019123E0	3.982636589E0
2.158139558E1	-7.469347119E-1	-2.997099400E0	-9.310170412E-1	3.226036114E0
2.159973428E1	-2.906030416E-1	-2.070368767E0	-4.695130587E-1	2.142736444E0
2.161807303E1	4.415735006E-1	-4.554595947E-1	-2.435035706E-1	6.795031919E-1
2.163639902E1	3.114217520E-1	7.832145691E-1	-3.190786839E-1	9.012323648E-1
2.165475053E1	-4.205055237E-1	9.071979523E-1	7.072424889E-2	1.002414555E0
2.167308928E1	-7.720087171E-1	5.468807220E-1	7.407679558E-1	1.201587761E0
2.169142803E1	-1.259703398E0	3.141365051E-1	1.044021845E0	1.665987997E0
2.170976678E1	-1.335796833E0	-1.839656830E-1	9.959416389E-1	1.676334185E0
2.172810553E1	-1.255712509E0	-3.569068909E-1	8.577604294E-1	1.562033735E0
2.174644428E1	-1.372613311E0	-5.543327332E-2	1.561970234E0	2.080118064E0
2.176478303E1	-1.546203852E0	-2.950820923E-1	2.842006207E0	3.248818104E0
2.178312178E1	-1.662580371E0	-1.396648407E0	3.779011488E0	4.358408894E0
2.180146053E1	-1.554709911E0	-2.030041695E0	4.249150276E0	4.959180402E0
2.181979928E1	-1.482464790E0	-1.482436180E0	3.681597233E0	4.236682318E0
2.183813803E1	-1.882395267E0	-1.230192184E-1	2.755094051E0	3.339025143E0
2.185647678E1	-1.656009912E0	2.603607178E-1	3.337249279E0	3.734620367E0
2.187481553E1	-1.440500855E0	-9.866590500E-1	3.911603212E0	4.283594109E0
2.189315428E1	-2.255915403E0	-1.547259331E0	3.415965319E0	4.376298071E0
2.191149303E1	-2.265333652E0	-4.558620453E-1	2.825751305E0	3.650262620E0
2.192983178E1	-1.660622358E0	9.808282852E-1	8.653439283E-1	2.113885251E0
2.194817053E1	-4.416984916E-1	2.405952454E0	-1.436705470E0	2.836869291E0
2.196649652E1	2.351617813E0	3.331158638E0	-2.336501837E0	4.699570730E0
2.198484803E1	6.024876118E0	6.375386238E0	-2.389400482E0	9.091419943E0
2.200318678E1	6.896450996E0	9.444525719E0	-2.648979187E0	1.199071279E1
2.202151277E1	4.701076031E0	7.823260307E0	-4.023803234E0	9.974693486E0
2.203986428E1	2.043720961E0	4.312460899E0	-5.193947792E0	7.053453625E0
2.205820303E1	2.384894192E-1	1.880127907E0	-5.642254829E0	5.952041474E0
2.207652902E1	-2.250951529E0	4.034824371E-1	-5.006262302E0	5.503838942E0
2.209488058E1	-4.942097664E0	-1.219317913E0	-4.075423717E0	6.520747194E0
2.211321933E1	-6.071521282E0	-2.385111809E0	-2.154162407E0	6.869683013E0
2.213154527E1	-2.075809717E0	-4.544166088E0	-1.002836943E0	5.095499323E0
2.214989683E1	2.240339041E0	-4.470860481E0	-4.488794804E-1	5.020876940E0
2.216823558E1	4.265622139E0	-3.599699020E0	-7.655215263E-1	5.633772136E0
2.218656157E1	4.475017548E0	-3.329516411E0	-1.366701126E0	5.742763581E0
2.220491308E1	3.824510098E0	-2.146170139E0	-2.332892418E0	4.967424965E0
2.222325183E1	2.799913883E0	-2.002620697E-1	-2.959617138E0	4.079087674E0
2.224157782E1	1.802673578E0	9.166793823E-1	-2.698321819E0	3.372072621E0
2.225992933E1	1.231072545E0	6.562070847E-1	-2.280079365E0	2.672996307E0
2.227826808E1	8.360964656E-1	-4.437007904E-1	-1.200939655E0	1.529112078E0
2.229660683E1	3.040482402E-1	-1.261611938E0	-9.378113747E-1	1.601124664E0
2.231494563E1	-7.647244930E-1	-1.699291229E0	-3.788983822E-1	1.901567305E0
2.233328438E1	-2.367553473E0	-2.191332340E0	5.031306744E-1	3.265024861E0
2.235161037E1	-3.770524979E0	-2.510252953E0	9.674491882E-1	4.631866409E0
2.236996188E1	-3.853749752E0	-2.048759460E0	9.828705788E-1	4.473794480E0
2.238830063E1	-3.318561792E0	-2.062149048E-1	1.139588356E0	3.514831230E0
2.240662662E1	-3.492630482E0	2.787933350E0	1.934198856E0	4.869513863E0
2.242497813E1	-3.348206997E0	3.629272461E0	2.623709679E0	5.591597372E0
2.244331688E1	-1.562866211E0	1.205610275E0	3.523788929E0	4.038952258E0
2.246164287E1	-5.809988379E-1	-4.482584000E-1	1.652604342E0	1.808202520E0
2.247999443E1	-1.632014036E0	2.377590179E0	-1.018533707E-1	2.885615876E0
2.249833318E1	-9.041811228E-1	7.647360802E0	-3.004502535E0	8.265996989E0
2.251665912E1	3.607273817E0	1.447186089E1	-8.021454811E0	1.693490240E1
2.253501068E1	9.610416412E0	1.053701878E1	-3.922970295E0	1.479116507E1
2.255334943E1	9.087472916E0	-2.853555679E-1	-1.126779318E0	9.161507705E0
2.257167542E1	3.497032404E0	-9.944496155E-1	-3.297629356E-1	3.650603959E0
2.259002693E1	5.248719454E-1	-2.374839783E-2	-8.908251524E-1	1.034226280E0
2.260836568E1	2.481955051E0	-1.932862282E0	-1.417871594E0	3.450567683E0
2.262669167E1	4.838028431E0	-2.832323551E0	-5.995327234E-1	5.638086137E0
2.264504324E1	5.859241009E0	-2.366037369E0	3.254687786E-1	6.327303372E0
2.266338199E1	4.778734684E0	-1.720587730E0	8.309626579E-1	5.146574225E0
2.268170792E1	1.463350773E0	-1.159482002E0	7.089304924E-2	1.868373577E0
2.270005949E1	-5.952158570E-1	-1.600441456E0	-1.129952908E0	2.047556676E0
2.271839824E1	-1.078701019E0	-1.755164146E0	-1.422912836E0	2.503772755E0
2.273673699E1	-4.561429620E-1	-1.854585171E0	-8.937536478E-1	2.108636560E0
2.275507574E1	2.726423740E-1	-1.408779621E0	-7.970567942E-1	1.641430296E0
2.277341449E1	2.198703289E-1	-6.274900436E-1	-6.148014069E-1	9.055757761E-1
2.279175329E1	-5.284190178E-1	-9.227752686E-3	-2.848024368E-1	6.003534274E-1
2.281009204E1	-1.058400393E0	2.024974823E-1	-4.578161240E-2	1.078569691E0
2.282843079E1	-1.038853884E0	3.534088135E-1	3.409602642E-1	1.149073141E0
2.284676954E1	-9.228705168E-1	2.163734436E-1	3.173201084E-1	9.995996744E-1
2.286510829E1	-8.078966141E-1	-1.593790054E-1	6.209435463E-1	1.031343538E0
2.288344704E1	-1.020783186E0	-6.490268707E-1	1.395225286E0	1.846588149E0
2.290178579E1	-1.469255805E0	-8.783864975E-1	2.251358509E0	2.828231001E0
2.292012454E1	-1.727256060E0	-8.890123367E-1	2.797251225E0	3.405638096E0
2.293846329E1	-1.762696505E0	-1.295395851E0	3.429057360E0	4.067380454E0
2.295680209E1	-1.478204012E0	-1.419786930E0	3.278391838E0	3.866359408E0
2.297514084E1	-1.776572704E0	-8.216457367E-1	2.376138210E0	3.078529695E0
2.299347959E1	-2.260146856E0	-2.158956528E-1	2.654017210E0	3.492661177E0
2.301181834E1	-1.919613123E0	2.885112762E-1	3.498311043E0	4.000791603E0
2.303015709E1	-1.910324097E0	-7.431592941E-1	3.967203617E0	4.465459487E0
2.304849584E1	-2.027297974E0	-6.408987045E-1	3.108042479E0	3.765715904E0
2.306683459E1	-1.504756451E0	3.828907013E-1	2.055159569E0	2.575767481E0
2.308517334E1	-8.851931691E-1	1.306243896E0	5.197726488E-1	1.661325877E0
2.310351209E1	1.782306433E-1	1.855972290E0	-1.034044981E0	2.132052609E0
2.312183808E1	2.306143045E0	2.593179703E0	-1.838556170E0	3.927233824E0
2.314018964E1	5.469659805E0	5.133043289E0	-1.866309881E0	7.729710497E0
2.315852839E1	6.032239914E0	7.501029015E0	-1.874062777E0	9.806399235E0
2.317685438E1	3.382234812E0	6.210234642E0	-3.124969006E0	7.731232626E0
2.319520589E1	9.772946835E-1	4.037236214E0	-4.797315598E0	6.345755911E0
2.321354464E1	-8.057095408E-1	2.350212097E0	-5.874548912E0	6.378321855E0
2.323187063E1	-2.548965216E0	7.498083115E-1	-5.119515896E0	5.767918098E0
2.325022214E1	-3.041594505E0	-1.732738495E0	-3.768652678E0	5.143580740E0
2.326856094E1	-3.295562267E0	-3.057900429E0	-1.710517526E0	4.810130549E0
2.328688688E1	-1.344358802E0	-3.989219666E0	-2.429487705E-1	4.216657234E0
2.330523844E1	2.665916920E0	-4.371433258E0	6.642005444E-1	5.163109927E0
2.332357719E1	4.401930809E0	-3.573485851E0	5.710780621E-1	5.698502095E0
2.334190318E1	4.005458355E0	-2.260741234E0	-1.565383792E0	4.858505323E0
2.336025469E1	3.015752316E0	-2.880344391E-1	-2.578876019E0	3.978483051E0
2.337859344E1	2.101014614E0	1.366237640E0	-2.676492691E0	3.666671627E0
2.339693219E1	1.202761650E0	1.647872925E0	-2.464385509E0	3.199268151E0
2.341527094E1	5.491862893E-1	4.398860931E-1	-1.903463960E0	2.029354676E0
2.343360969E1	1.502404809E-1	-1.059405804E0	-1.113395214E0	1.544202630E0
2.345193568E1	-2.419030666E-2	-2.000166893E0	-2.909295559E-1	2.021359141E0
2.347028725E1	-2.910512090E-1	-2.313757896E0	1.087186337E-1	2.334524823E0
2.348862600E1	-6.894443631E-1	-2.198163033E0	1.063416004E-1	2.306200942E0
2.350696475E1	-8.283260465E-1	-1.667965412E0	-3.156840801E-1	1.888885675E0
2.352530350E1	-9.677906632E-1	-8.044176102E-1	-1.475524902E-1	1.267074661E0
2.354364225E1	-1.287485123E0	1.878814697E-1	5.316100121E-1	1.405534273E0
2.356196824E1	-2.022284269E0	1.439792633E0	8.658912182E-1	2.629145126E0
2.358031975E1	-2.642071486E0	2.550125122E0	7.747921944E-1	3.752863283E0
2.359865850E1	-2.381281853E0	1.651903152E0	1.761132479E0	3.391293985E0
2.361698449E1	-1.808847189E0	-4.959087372E-1	3.244578123E0	3.747684729E0
2.363533600E1	-1.554559946E0	-2.001139164E0	3.366647005E0	4.213730727E0
2.365367475E1	-4.283603132E-1	-2.058608055E0	2.365570307E0	3.165009093E0
2.367200074E1	-1.205435276E0	1.151391029E0	6.909739971E-1	1.804500089E0
2.369035225E1	-1.033870578E0	9.188182831E0	-2.126457214E0	9.487539849E0
2.370869105E1	3.365110874E0	1.675534439E1	-8.613512993E0	1.913787195E1
2.372701699E1	9.726507187E0	8.293398857E0	-3.017819643E0	1.313364542E1
2.374536855E1	8.273360252E0	-2.623767376E0	-2.116310120E0	8.933723391E0
2.376370730E1	2.809608459E0	-2.110914707E0	-1.831187725E0	3.962714862E0
2.378203324E1	5.372092724E-1	-1.362396240E0	-1.279994130E0	1.945019869E0
2.380038480E1	2.203840733E0	-3.006287575E0	-1.931557655E-1	3.732557850E0
2.381872355E1	3.393314123E0	-3.360100269E0	1.488702536E0	5.002108535E0
2.383706230E1	3.102781534E0	-2.536971092E0	1.600912094E0	4.315830755E0
2.385540105E1	1.863780499E0	-1.491642952E0	1.517062187E-1	2.392005690E0
2.387373980E1	3.566433787E-1	-7.394905090E-1	-8.185678720E-1	1.159350712E0
2.389207855E1	1.511612535E-1	-8.298215866E-1	-1.626739144E0	1.832412026E0
2.391041730E1	4.014822841E-1	-1.006278038E0	-1.975886703E0	2.253422236E0
2.392875605E1	9.925747514E-1	-1.101605415E0	-1.150826693E0	1.877003251E0
2.394709480E1	1.090581298E0	-7.648725510E-1	-4.822083712E-1	1.416658921E0
2.396543355E1	5.318311453E-1	-4.382467270E-1	-3.250629902E-1	7.619517756E-1
2.398377230E1	-3.311467171E-1	1.394176483E-2	-3.796863556E-1	5.039982635E-1
2.400211105E1	-9.509063959E-1	2.912302017E-1	3.563106060E-1	1.056406765E0
2.402044980E1	-1.160902023E0	5.131635666E-1	9.579126835E-1	1.590165734E0
2.403878855E1	-1.230937123E0	3.370237350E-1	5.899376869E-1	1.405993483E0
2.405712730E1	-1.514430523E0	1.599912643E-1	8.999228477E-2	1.525514872E0
2.407546605E1	-1.379298687E0	2.689437866E-1	5.176813602E-1	1.497594611E0
2.409380480E1	-9.076857567E-1	3.779134750E-1	1.783957362E0	2.036962419E0
2.411213079E1	-8.663377762E-1	-1.334009171E-1	2.999115467E0	3.124584858E0
2.413048230E1	-1.227671146E0	-1.288609505E0	3.594206572E0	4.010737062E0
2.414882105E1	-1.431141734E0	-2.063894749E0	3.694706917E0	4.467514678E0
2.416715980E1	-1.723262906E0	-1.820306778E0	3.076080799E0	3.968050515E0
2.418549855E1	-2.020892859E0	-6.023015976E-1	2.103522778E0	2.978520310E0
2.420383730E1	-1.769650459E0	5.531949997E-1	2.599943161E0	3.193335544E0
2.422217605E1	-1.625335455E0	1.061401367E-1	3.771210194E0	4.107920081E0
2.424051480E1	-2.571142197E0	-1.160412788E0	3.728886604E0	4.675673785E0
2.425885355E1	-2.950637341E0	-1.265032768E0	3.193924427E0	4.528545226E0
2.427717949E1	-2.325831413E0	-5.768432617E-1	1.986489773E0	3.112616508E0
2.429553105E1	-1.794602036E0	6.996345520E-1	-4.211206436E-1	1.971656048E0
2.431386980E1	-2.205184102E-1	1.597651482E0	-1.865001202E0	2.465633409E0
2.433219574E1	3.073900700E0	3.976503372E0	-2.165376902E0	5.472686882E0
2.435054730E1	7.871584415E0	9.008093834E0	-1.798432589E0	1.209718792E1
2.436888605E1	9.081292152E0	1.131497002E1	-8.572111130E-1	1.453386475E1
2.438721199E1	4.301139355E0	6.651364326E0	-3.476902485E0	8.650392941E0
2.440556355E1	7.227245718E-2	3.129903793E0	-6.534402847E0	7.245684345E0
2.442390230E1	-2.878338337E0	1.056196213E0	-6.084003448E0	6.812890721E0
2.444222824E1	-4.911058903E0	-1.127248764E0	-5.690798283E0	7.600945626E0
2.446057975E1	-6.831175804E0	-2.615968704E0	-4.761583328E0	8.728168818E0
2.447891850E1	-3.564733982E0	-4.736610889E0	-1.765055656E0	6.185323965E0
2.449724449E1	1.354790449E0	-5.963285446E0	9.841480255E-1	6.193930724E0
2.451559600E1	4.609703541E0	-5.087481499E0	2.171807766E0	7.200596066E0
2.453393475E1	5.182263374E0	-4.180328369E0	9.345870018E-1	6.723425601E0
2.455226074E1	4.268730164E0	-2.133462429E0	-1.985591412E0	5.168780552E0
2.457061225E1	3.421389103E0	7.947340012E-1	-3.761481762E0	5.146479435E0
2.458895100E1	2.755515099E0	2.570489883E0	-3.965457678E0	5.470387216E0
2.460727699E1	1.512542605E0	1.815348625E0	-3.150034666E0	3.937765123E0
2.462562850E1	6.982885599E-1	1.153326035E-1	-2.319354773E0	2.424936099E0
2.464396725E1	6.857074499E-1	-1.176120281E0	-1.580489159E0	2.086000864E0
2.466229318E1	8.532178402E-2	-1.761715412E0	-5.565474033E-1	1.849504261E0
2.468064475E1	-1.045204401E0	-2.047756672E0	7.011382580E-1	2.403612798E0
2.469898350E1	-1.743710518E0	-2.333835125E0	1.407790661E0	3.235612354E0
2.471732219E1	-2.255001068E0	-2.049716949E0	1.382620335E0	3.346342538E0
2.473566094E1	-2.487037659E0	-7.116327286E-1	1.100043058E0	2.811026892E0
2.475399969E1	-3.113683224E0	1.952428818E0	8.559904099E-1	3.773555497E0
2.477232568E1	-4.052785397E0	4.431988716E0	1.213246822E0	6.126953672E0
2.479067719E1	-2.907180309E0	2.396261215E0	2.916798830E0	4.764607075E0
2.480901594E1	-2.089727879E0	-5.000495911E-1	4.175121307E0	4.695599017E0
2.482734188E1	-1.783410788E0	3.485260010E-1	1.678384304E0	2.473660907E0
2.484569344E1	-1.403208017E0	5.963999748E0	-7.642483711E-1	6.174330839E0
2.486403214E1	1.580400705E0	1.171559143E1	-5.434491158E0	1.301101238E1
2.488235813E1	8.219276428E0	1.172158337E1	-6.821783066E0	1.585839670E1
2.490070964E1	9.397272110E0	9.128704071E-1	-2.832747936E0	9.857307764E0
2.491904839E1	3.927614450E0	-2.208093643E0	-1.777791023E0	4.843797449E0
2.493737438E1	-1.159096003E0	2.869844437E-1	-3.151972294E-1	1.234995104E0
2.495572589E1	-2.425855994E-1	-9.463863373E-1	-9.622650146E-1	1.371294582E0
2.497406464E1	2.873845100E0	-2.024197578E0	-8.953231573E-1	3.627390943E0
2.499239058E1	4.879431248E0	-2.647353649E0	2.309403419E-1	5.556137515E0
2.501074209E1	5.820830345E0	-2.584469318E0	8.318181038E-1	6.422886339E0
2.502908084E1	4.381570339E0	-2.436430931E0	4.007225037E-1	5.029406808E0
2.504740683E1	9.072954655E-1	-2.035879135E0	-2.373454571E-1	2.241499895E0
2.506575834E1	-9.910219908E-1	-2.346403122E0	-4.276300669E-1	2.582750408E0
2.508409709E1	-1.542275429E0	-2.237008095E0	-1.561448574E-1	2.721617154E0
2.510243584E1	-8.492255807E-1	-1.638327599E0	-6.409251690E-1	1.953480606E0
2.512077454E1	2.510339022E-1	-7.020530701E-1	-1.520595431E0	1.693548641E0
2.513911329E1	8.067229986E-1	4.164047241E-1	-1.562765121E0	1.807326677E0
2.515745204E1	6.086575985E-1	8.093481064E-1	-1.131560802E-1	1.018976314E0
2.517579079E1	-3.915617466E-1	8.417749405E-1	5.673501492E-1	1.088021987E0
2.519412954E1	-1.165423512E0	9.320144653E-1	6.690227985E-1	1.635375930E0
2.521246829E1	-1.328699470E0	8.947591782E-1	6.628713608E-1	1.733618963E0
2.523080699E1	-1.147480249E0	3.772830963E-1	2.941124439E-1	1.243203759E0
2.524914574E1	-8.380628824E-1	8.064556122E-2	1.262757778E-1	8.513510871E-1
2.526748449E1	-3.193309307E-1	-1.378536224E-2	1.203898311E0	1.245605645E0
2.528582324E1	-2.860274315E-1	-3.873090744E-1	2.748962641E0	2.790809132E0
2.530416199E1	-6.013464928E-1	-1.086295128E0	3.856256962E0	4.051218639E0
2.532250068E1	-6.673699617E-1	-1.654287338E0	4.201183319E0	4.564207548E0
2.534083943E1	-1.023390532E0	-1.285852432E0	3.586002827E0	3.944636983E0
2.535917818E1	-2.220719337E0	-3.283720016E-1	3.055697203E0	3.791662952E0
2.537750412E1	-2.834877491E0	6.476678848E-1	2.723498583E0	3.984149672E0
2.539585563E1	-2.491882086E0	7.359809875E-1	2.907176018E0	3.899078961E0
2.541419438E1	-2.544590235E0	-9.506816864E-1	3.727532864E0	4.612291879E0
2.543252037E1	-2.662982941E0	-2.587814808E0	3.759252787E0	5.283961122E0
2.545087188E1	-2.584242582E0	-2.457354546E0	3.235028267E0	4.814801032E0
2.546921058E1	-2.294982433E0	-1.202106476E0	1.422596574E0	2.955636202E0
2.548753657E1	-1.651961923E0	1.338634491E-1	-1.057610273E0	1.966071491E0
2.550588808E1	5.901451707E-1	2.460070610E0	-2.348017216E0	3.451579866E0
2.552422683E1	5.537817001E0	7.219006538E0	-2.005741119E0	9.316891648E0
2.554255277E1	8.991227150E0	1.286881256E1	-6.405597925E-1	1.571174145E1
2.556090428E1	6.486505985E0	1.094894791E1	-1.603142023E0	1.282670201E1
2.557924303E1	1.979699016E0	5.306409836E0	-5.285018444E0	7.746522671E0
2.559756896E1	-5.945984721E-1	1.850090981E0	-6.708621502E0	6.984410242E0
2.561592048E1	-2.671885729E0	-5.428152084E-1	-5.267930031E0	5.931669959E0
2.563425923E1	-4.643612385E0	-2.595611095E0	-5.295762062E0	7.506359221E0
2.565258516E1	-6.300740719E0	-3.680180550E0	-4.290596008E0	8.464766777E0
2.567093673E1	-2.663188457E0	-5.431800365E0	-5.597107410E-1	6.075385098E0
2.568927542E1	2.896680832E0	-5.770698547E0	2.105191231E0	6.791432226E0
2.570760141E1	5.558850288E0	-4.651753902E0	2.040472984E0	7.530150124E0
2.572595292E1	5.777923584E0	-4.059523582E0	3.657445908E-1	7.070919443E0
2.574429162E1	4.483081818E0	-1.726493835E0	-2.801373959E0	5.561159915E0
2.576261761E1	3.067291021E0	1.079090118E0	-4.466928005E0	5.525048009E0
2.578096912E1	2.006621122E0	2.698350906E0	-3.877401590E0	5.132433052E0
2.579930787E1	1.177741051E0	2.156286240E0	-2.365028381E0	3.410279105E0
2.581763381E1	7.288323641E-1	1.879854202E-1	-1.495813847E0	1.674513122E0
2.583598532E1	8.223105073E-1	-1.360680580E0	-9.826593399E-1	1.869027980E0
2.585432407E1	4.278878570E-1	-2.100396156E0	2.135324478E-2	2.143643625E0
2.587265001E1	-6.900173426E-1	-2.191335678E0	8.088786602E-1	2.435643790E0
2.589100152E1	-1.768478870E0	-2.071963787E0	1.131087065E0	2.949560882E0
2.590934027E1	-2.513754845E0	-1.503578186E0	1.604606390E0	3.339831200E0
2.592766620E1	-2.785564423E0	2.271699905E-1	1.385926723E0	3.119578215E0
2.594601777E1	-2.822736502E0	2.610922813E0	8.255505562E-1	3.932720816E0
2.596435646E1	-3.345535040E0	3.821058273E0	1.088603735E0	5.194049396E0
2.598269522E1	-3.086180687E0	1.615739822E0	2.145401001E0	4.091194430E0
2.600103396E1	-1.799600363E0	-7.141361237E-1	3.228009462E0	3.764119679E0
2.601937266E1	-6.480796933E-1	-1.360671997E0	1.567912579E0	2.174806986E0
2.603769865E1	-1.302840471E0	2.802236557E0	1.740341187E-1	3.095191576E0
2.605605016E1	4.693731666E-1	9.560339928E0	-3.864534378E0	1.032254991E1
2.607438886E1	6.378587723E0	1.722793961E1	-7.960798264E0	2.002155322E1
2.609271485E1	9.849988937E0	7.338898659E0	-2.819661617E0	1.260286504E1
2.611106636E1	6.489104271E0	-3.229867935E0	-1.779332757E0	7.463681811E0
2.612940506E1	1.641676068E0	-2.221786022E0	-5.053441525E-1	2.808345804E0
2.614773105E1	6.743890047E-1	-2.523599148E0	-8.824192286E-1	2.757175526E0
2.616608256E1	2.688029528E0	-3.392081261E0	-2.553834915E-1	4.335543651E0
2.618442131E1	4.228537083E0	-3.216307163E0	1.264798641E-1	5.314240753E0
2.620276001E1	4.459915638E0	-2.374331951E0	6.176562309E-1	5.090166886E0
2.622109876E1	3.357184172E0	-1.708583832E0	4.968230724E-1	3.799575955E0
2.623943751E1	8.217298985E-1	-1.411202431E0	-8.457168341E-1	1.839013129E0
2.625776344E1	-6.492239237E-2	-1.972887516E0	-5.851567984E-1	2.058860983E0
2.627611496E1	-4.045487344E-1	-1.811029911E0	-8.846282959E-2	1.857771431E0
2.629445371E1	-3.967774510E-1	-1.106525421E0	1.630306244E-2	1.175626064E0
2.631279240E1	-1.788386703E-1	-3.231716156E-1	-2.517602444E-1	4.469970735E-1
2.633113115E1	-4.121617675E-1	3.874387741E-1	-7.254147530E-1	9.198981955E-1
2.634946990E1	-7.973375320E-1	3.965597153E-1	-4.350563288E-1	9.911007804E-1
2.636780865E1	-1.120327234E0	2.008819580E-2	2.583084106E-1	1.149895596E0
2.638614735E1	-1.464574933E0	-3.655414581E-1	4.138703346E-1	1.565212109E0
2.640448610E1	-1.907567382E0	-2.603759766E-1	3.907988071E-1	1.964518433E0
2.642282480E1	-1.296809912E0	2.208890915E-1	6.091260910E-2	1.316897218E0
2.644116355E1	-5.083560944E-2	4.317741394E-1	1.720658541E-1	4.675679895E-1
2.645950230E1	3.280696869E-1	6.509666443E-1	1.195598483E0	1.400301048E0
2.647784100E1	-1.679539680E-2	5.746116638E-1	2.288708925E0	2.359798549E0
2.649617975E1	-5.247149467E-1	-4.887437820E-1	3.394866943E0	3.469772013E0
2.651451850E1	-1.251130939E0	-1.662930965E0	4.011251926E0	4.518939039E0
2.653285719E1	-1.524584174E0	-1.922341347E0	3.986385822E0	4.680921392E0
2.655119594E1	-1.956739187E0	-1.290309906E0	3.803832054E0	4.467982341E0
2.656953469E1	-2.125802040E0	-2.322502136E-1	2.956139565E0	3.648525127E0
2.658787339E1	-1.682186604E0	-4.433174133E-1	3.523138285E0	3.929221993E0
2.660621214E1	-1.821007609E0	-1.927397251E0	3.805675507E0	4.638328895E0
2.662455089E1	-2.446520567E0	-1.858788013E0	2.727277756E0	4.108357302E0
2.664287683E1	-2.442673922E0	5.812168121E-2	1.990696788E0	3.151651586E0
2.666122834E1	-1.690281153E0	2.380852699E0	1.283231974E-1	2.922666042E0
2.667956709E1	-6.527394056E-2	3.910928726E0	-2.022487164E0	4.403416687E0
2.669789303E1	3.377485275E0	5.777343750E0	-2.983243942E0	7.326994746E0
2.671624454E1	6.884045124E0	9.085986137E0	-1.887010336E0	1.155448092E1
2.673458329E1	6.205296040E0	9.186161995E0	-2.166924477E0	1.129543416E1
2.675290923E1	2.802754641E0	5.220293999E0	-4.788825989E0	7.618382857E0
2.677126074E1	8.486891985E-1	1.924603462E0	-5.423055649E0	5.816691879E0
2.678959949E1	-7.118338943E-1	-1.119403839E-1	-4.992205620E0	5.043942416E0
2.680792542E1	-2.791452885E0	-1.822313786E0	-4.914443970E0	5.938416984E0
2.682627693E1	-5.310851097E0	-2.839920044E0	-3.829254627E0	7.136769313E0
2.684461568E1	-5.073822498E0	-3.704859257E0	-8.603625298E-1	6.341126125E0
2.686294162E1	-1.913006902E-1	-5.275630951E0	4.500689507E-1	5.298248762E0
2.688129313E1	3.014310360E0	-4.609700203E0	1.167812347E-1	5.508996348E0
2.689963188E1	3.783617258E0	-3.682054520E0	-7.343688011E-1	5.330345446E0
2.691795782E1	3.498425961E0	-2.302708149E0	-2.382722378E0	4.818590556E0
2.693630933E1	3.180706024E0	-9.132671356E-2	-3.355781317E0	4.624553992E0
2.695464808E1	2.981117725E0	1.553290367E0	-3.395817995E0	4.778216583E0
2.697298678E1	2.192493439E0	1.666046143E0	-2.718068123E0	3.869190038E0
2.699132553E1	1.334753036E0	3.488931656E-1	-2.164010763E0	2.566366048E0
2.700966428E1	1.175408244E0	-1.330561638E0	-1.254604578E0	2.173939157E0
2.702799022E1	9.921934605E-1	-2.478231907E0	-3.464679718E-1	2.691862051E0
2.704634173E1	1.048864722E-1	-2.627739906E0	9.165601730E-1	2.784977691E0
2.706468048E1	-8.526872993E-1	-2.324481487E0	1.598993540E0	2.947383612E0
2.708300641E1	-1.775684476E0	-1.415001869E0	1.315457821E0	2.624064581E0
2.710135792E1	-2.954610586E0	1.101646423E-1	3.097219467E-1	2.972841679E0
2.711969667E1	-3.893409252E0	1.782377243E0	-1.403622627E-1	4.284297586E0
2.713802261E1	-4.190913677E0	3.371677399E0	-1.284162998E-1	5.380377001E0
2.715637412E1	-4.172253609E0	3.494163513E0	1.490254164E0	5.642493802E0
2.717471287E1	-3.181267262E0	8.031692505E-1	3.301852942E0	4.654865743E0
2.719303881E1	-2.692724228E0	-1.181587219E0	3.956178188E0	4.929326321E0
2.721139032E1	-8.875797987E-1	-2.060973167E0	2.426813364E0	3.305273272E0
2.722972907E1	-8.145785332E-1	-4.786558151E-1	1.100437641E-1	9.511883126E-1
2.724805501E1	-1.435368299E0	4.433143616E0	-2.475518465E0	5.276479522E0
2.726640652E1	1.674386740E0	1.337065315E1	-7.775592327E0	1.555756320E1
2.728474527E1	8.771252632E0	1.563018417E1	-7.061597824E0	1.926405185E1
2.730307126E1	1.009853935E1	1.783556938E0	-2.836337805E0	1.063984890E1
2.732142277E1	6.315470219E0	-3.777072430E0	-1.527093291E0	7.515547494E0
2.733976147E1	1.793824196E0	-1.792012215E0	-8.793473244E-2	2.537093916E0
2.735808746E1	2.036155701E0	-2.954856873E0	8.604955673E-2	3.589500481E0
2.737643897E1	3.645090580E0	-3.146083355E0	2.014356852E0	5.219402201E0
2.739477766E1	4.709859848E0	-1.577765465E0	2.020765305E0	5.362426323E0
2.741310365E1	4.338168621E0	-3.228511810E-1	-3.613642454E-1	4.365148793E0
2.743145516E1	2.173857927E0	3.334188461E-1	-9.537594318E-1	2.397182402E0
2.744979391E1	-1.643588543E-1	3.979873657E-1	-1.028554201E0	1.115047766E0
2.746813261E1	-4.983794391E-1	-7.365570068E-1	-1.562656403E0	1.797997031E0
2.748647136E1	-2.382434607E-1	-2.097500324E0	-1.354557395E0	2.508205194E0
2.750481011E1	-3.352666497E-1	-2.614478111E0	6.606507301E-2	2.636714644E0
2.752314881E1	-5.201582313E-1	-2.412606239E0	7.859761715E-1	2.590172194E0
2.754148756E1	-5.323424339E-1	-1.512732506E0	-5.411698818E-1	1.692516748E0
2.755982631E1	-9.782469273E-2	-1.697731018E-1	-1.096064210E0	1.113440312E0
2.757815225E1	-1.659735441E-1	1.074407578E0	2.475132942E-1	1.114971610E0
2.759650376E1	-1.108193159E0	1.732093811E0	1.156583786E0	2.359221715E0
2.761484251E1	-1.593440175E0	1.143413544E0	7.776968479E-1	2.109800586E0
2.763318126E1	-1.718899250E0	3.365688324E-1	2.826545238E-1	1.774200324E0
2.765151996E1	-1.997963667E0	7.092571259E-2	1.047951102E0	2.257230778E0
2.766985871E1	-2.172531605E0	-3.687601089E-1	2.230401993E0	3.135374083E0
2.768819746E1	-1.691177845E0	-1.226646423E0	3.280778170E0	3.889505026E0
2.770653615E1	-1.081352472E0	-2.091027737E0	3.795194626E0	4.466007435E0
2.772487490E1	-1.122429967E0	-2.110404015E0	3.577969074E0	4.302966050E0
2.774321365E1	-1.562312126E0	-8.891468048E-1	2.720526695E0	3.260777012E0
2.776155235E1	-1.782222509E0	3.586874008E-1	2.017922878E0	2.716060836E0
2.777989110E1	-1.045600057E0	3.121938705E-1	2.940335035E0	3.136289944E0
2.779822985E1	-1.347237706E0	-1.123862267E0	3.721603394E0	4.114419479E0
2.781656855E1	-2.133384466E0	-1.902082443E0	3.373916388E0	4.421827528E0
2.783490730E1	-2.599837303E0	-6.291627884E-1	2.506805897E0	3.665934481E0
2.785323329E1	-2.576400995E0	2.041129112E0	6.555063725E-1	3.351677005E0
2.787158480E1	-1.553542852E0	4.604759216E0	-2.042438984E0	5.271513999E0
2.788992350E1	1.563462853E0	6.001506805E0	-3.066559315E0	6.918546528E0
2.790824949E1	5.420533180E0	8.614011765E0	-3.060635090E0	1.062783448E1
2.792660100E1	6.126388073E0	8.974738121E0	-2.518376350E0	1.115440606E1
2.794493975E1	1.956088781E0	4.608804703E0	-5.783658981E0	7.649710800E0
2.796326568E1	-1.468725502E-2	9.144277573E-1	-6.009940624E0	6.079126594E0
2.798161719E1	-9.162635803E-1	-1.139932632E0	-5.007528305E0	5.216735098E0
2.799995594E1	-2.796476841E0	-2.542590141E0	-5.047697067E0	6.305893516E0
2.801828188E1	-5.303053856E0	-3.512217522E0	-4.563449383E0	7.828353747E0
2.803663339E1	-5.409101009E0	-4.441320419E0	-1.423157811E0	7.142064054E0
2.805497214E1	-1.765571952E0	-4.863088608E0	7.016384602E-1	5.221031666E0
2.807329808E1	3.521402597E0	-4.193893909E0	1.830440760E0	5.774039812E0
2.809164964E1	5.548528671E0	-3.061420441E0	1.697158813E0	6.560397364E0
2.810998834E1	4.563881874E0	-1.400681973E0	-1.408047676E-1	4.776060482E0
2.812831433E1	2.445826292E0	1.473396301E0	-2.805341244E0	4.002861777E0
2.814666584E1	1.049047947E0	2.930268288E0	-3.672148228E0	4.813693638E0
2.816500459E1	5.316733718E-1	2.698432922E0	-3.014976740E0	4.080968213E0
2.818334329E1	7.145634890E-1	1.240265846E0	-2.638431549E0	3.001696418E0
2.820168204E1	7.188746929E-1	-1.678390503E-1	-2.076915741E0	2.204207287E0
2.822002079E1	5.818170309E-1	-1.263014793E0	-1.026465416E0	1.728394826E0
2.823834673E1	3.651191592E-1	-2.116846561E0	6.915214062E-1	2.256668611E0
2.825669829E1	-6.232794523E-1	-2.179661751E0	1.390195847E0	2.659332081E0
2.827503699E1	-1.783623934E0	-2.237843513E0	1.031613350E0	3.041953983E0
2.829336298E1	-3.028133154E0	-1.631734848E0	1.294927597E-1	3.442225644E0
2.831171449E1	-3.780941963E0	-3.557338715E-1	-4.792630672E-1	3.827761984E0
2.833005324E1	-4.213876247E0	1.846055031E0	6.161079407E-1	4.641579602E0
2.834837917E1	-4.310335159E0	3.847014427E0	2.526862860E0	6.305834211E0
2.836673068E1	-2.991095066E0	2.526515961E0	3.254338503E0	5.091232826E0
2.838506943E1	-8.043746948E-1	7.050399780E-1	2.259889603E0	2.500240196E0
2.840339537E1	-7.022213936E-2	1.133956909E0	-1.965899467E-1	1.153012154E0
2.842174693E1	-2.290058732E-1	3.394059181E0	-2.237077236E0	4.071436599E0
2.844008563E1	9.649221897E-1	5.953921318E0	-4.333334446E0	7.426845987E0
2.845841162E1	3.767119646E0	9.337391853E0	-5.398459435E0	1.142459808E1
2.847676313E1	6.680844784E0	6.769861221E0	-1.857001424E0	9.690880366E0
2.849510188E1	5.864725113E0	-1.685085297E-1	-3.602554798E-1	5.878195283E0
2.851342782E1	1.970847368E0	-1.552686691E-1	-1.086457968E0	2.255823270E0
2.853177933E1	1.029340982E0	-4.124174118E-1	-2.500815630E0	2.735637000E0
2.855011808E1	2.579771280E0	-1.608286858E0	-1.395155668E0	3.344886517E0
2.856844407E1	3.924341440E0	-2.567480087E0	7.490394115E-1	4.749049355E0
2.858679558E1	4.142644405E0	-2.652232647E0	2.246607542E0	5.407687688E0
2.860513433E1	2.836862087E0	-2.742496967E0	2.208524227E0	4.521797804E0
2.862346027E1	7.205978036E-1	-2.765360355E0	9.911828041E-1	3.024718572E0
2.864181178E1	-8.117276430E-1	-2.445806503E0	-5.889207125E-1	2.643425585E0
2.866015053E1	-1.079479218E0	-1.929067612E0	-2.474416733E0	3.318028842E0
2.867848928E1	-8.469320536E-1	-1.379358292E0	-2.305463791E0	2.816928556E0
2.869682798E1	-2.855778933E-1	-1.251198769E0	-6.521109343E-1	1.439549152E0
2.871516673E1	-2.844563723E-1	-7.536239624E-1	5.892055035E-1	9.980118385E-1
2.873350548E1	-7.949237823E-1	-8.302879333E-2	7.004160881E-1	1.062723057E0
2.875184423E1	-8.011121750E-1	-6.893730164E-2	8.188238144E-1	1.147608604E0
2.877018298E1	-7.877284884E-1	3.525352478E-2	1.430588961E0	1.633506583E0
2.878852167E1	-9.630088210E-1	3.391780853E-1	1.158129930E0	1.543921209E0
2.880686042E1	-8.893052936E-1	6.099472046E-1	7.964884043E-1	1.340631670E0
2.882519917E1	-7.366331816E-1	6.886520386E-1	1.310029626E0	1.653193181E0
2.884353792E1	-8.407815695E-1	2.434024811E-1	1.987617135E0	2.171814976E0
2.886187667E1	-1.023666382E0	-1.197207451E0	2.969218731E0	3.361169203E0
2.888021537E1	-8.130360842E-1	-2.441495895E0	3.460646152E0	4.312540049E0
2.889855412E1	-3.535838127E-1	-2.479837894E0	3.880939484E0	4.619124243E0
2.891689287E1	-1.525342464E-1	-1.256682396E0	3.411737204E0	3.639020210E0
2.893523162E1	-2.464172840E-1	1.741447449E-1	3.383019447E0	3.396449389E0
2.895357032E1	-6.902377605E-1	2.892227173E-1	3.489373922E0	3.568726428E0
2.897190907E1	-1.843318939E0	-9.206867218E-2	3.156646729E0	3.656599502E0
2.899024782E1	-2.123417854E0	6.377096176E-1	2.744632721E0	3.528255336E0
2.900857376E1	-2.051831722E0	2.122920036E0	1.506178975E0	3.314419708E0
2.902692527E1	-1.618032813E0	3.668814659E0	-6.648846865E-1	4.064517540E0
2.904526402E1	-1.960152388E-2	4.049964905E0	-1.479998946E0	4.311959744E0
2.906359001E1	2.836105585E0	4.994676590E0	-2.502481937E0	6.265197920E0
2.908194152E1	6.138677597E0	7.069233894E0	-2.830235004E0	9.780984647E0
2.910028027E1	6.318912506E0	5.945537567E0	-3.452820539E0	9.338096267E0
2.911860621E1	3.217996836E0	1.779631615E0	-4.280761719E0	5.643360099E0
2.913695772E1	8.736075163E-1	-5.328702927E-1	-3.735013962E0	3.872656728E0
2.915529647E1	-1.450301170E0	-8.418874741E-1	-4.393990040E0	4.703115613E0
2.917362240E1	-4.172235489E0	-1.335742950E0	-4.049401283E0	5.965685959E0
2.919197397E1	-5.487745762E0	-1.980407238E0	-2.433609247E0	6.321378041E0
2.921031266E1	-2.066647530E0	-3.339391708E0	-1.270671606E0	4.127611334E0
2.922863865E1	2.192106962E0	-4.111228943E0	-5.610921383E-1	4.692798818E0
2.924699016E1	4.099190712E0	-3.255924225E0	-7.734813690E-1	5.291755898E0
2.926532891E1	4.182141781E0	-2.633136749E0	-1.739231586E0	5.239145496E0
2.928365485E1	3.200853825E0	-1.258408546E0	-2.047413588E0	4.002619102E0
2.930200636E1	1.934878826E0	1.042615891E0	-2.556541681E0	3.371455077E0
2.932034511E1	1.320486665E0	2.085108757E0	-2.679870605E0	3.643222478E0
2.933868386E1	9.716249704E-1	1.768748283E0	-2.246527433E0	3.019836267E0
2.935702261E1	8.011840582E-1	4.257173538E-1	-2.477657318E0	2.638544475E0
2.937536131E1	6.926313639E-1	-1.049939156E0	-1.760809898E0	2.163922812E0
2.939368730E1	-1.162390709E-1	-1.999714851E0	-7.176687717E-1	2.127773361E0
2.941203881E1	-1.258143544E0	-2.804000378E0	2.953042984E-1	3.087482457E0
2.943037756E1	-2.257175207E0	-3.425878525E0	1.015553474E0	4.226444421E0
2.944870350E1	-2.922840595E0	-3.085043430E0	1.193881989E0	4.414277326E0
2.946705501E1	-3.771658421E0	-7.244253159E-1	1.583848476E0	4.154368216E0
2.948539376E1	-4.621387005E0	3.296751976E0	2.443094492E0	6.180170073E0
2.950373251E1	-3.347742081E0	3.958353043E0	3.341516733E0	6.167792954E0
2.952207126E1	-1.225368500E0	1.170961380E0	3.563795090E0	3.946303835E0
2.954040996E1	-1.932693005E0	1.401754379E0	5.500838757E-1	2.450063236E0
2.955873594E1	-2.323001385E0	4.353302956E0	-1.797077298E0	5.251387328E0
2.957708746E1	-5.303937793E-1	7.487067223E0	-4.850067139E0	8.936478300E0
2.959542621E1	3.880021572E0	1.263411713E1	-8.114517212E0	1.550873536E1
2.961375214E1	8.343773842E0	8.888287544E0	-1.545669198E0	1.228858457E1
2.963210365E1	7.779300213E0	-4.282560349E-1	-2.695057392E-1	7.795739117E0
2.965044240E1	2.184792519E0	-6.566438675E-1	-1.699540615E0	2.844808925E0
2.966876839E1	8.978193998E-2	-5.223712921E-1	-2.441364050E0	2.498237576E0
2.968711990E1	2.771883011E0	-2.173379898E0	-1.103586793E0	3.691181304E0
2.970545865E1	5.098334312E0	-3.010540485E0	6.150403023E-1	5.952700341E0
2.972379735E1	5.543043137E0	-3.214662552E0	1.289312363E0	6.536184583E0
2.974213610E1	3.762762785E0	-3.168874741E0	1.524527550E0	5.150178167E0
2.976047485E1	1.492113948E0	-3.158811092E0	1.224526167E0	3.701885450E0
2.977880079E1	-2.365254164E-1	-2.841505051E0	-4.498648643E-2	2.851687046E0
2.979715235E1	-1.319592834E0	-2.205673218E0	-6.602808237E-1	2.653731402E0
2.981549105E1	-1.839440942E0	-1.209941864E0	-2.017597675E0	2.986335995E0
2.983382980E1	-1.292165160E0	-1.128802299E0	-1.048021197E0	2.010530742E0
2.985216855E1	-1.127136588E0	-4.744501114E-1	2.706863880E-1	1.252521823E0
2.987050730E1	-1.234911442E0	4.437065125E-1	4.703927040E-1	1.393969524E0
2.988883324E1	-1.011162877E0	1.220769882E0	4.513676167E-1	1.648169346E0
2.990718475E1	-7.731710672E-1	1.538688660E0	7.326853275E-1	1.871412322E0
2.992552350E1	-5.069589615E-1	1.343652725E0	7.357296944E-1	1.613601009E0
2.994386225E1	-1.138731241E-1	9.722537994E-1	3.777759075E-1	1.049266017E0
2.996220100E1	4.426182508E-1	3.774271011E-1	8.416661024E-1	1.023114833E0
2.998053975E1	2.134050131E-1	-2.063541412E-1	1.599104166E0	1.626424872E0
2.999887844E1	-1.657201052E-1	-9.560689926E-1	2.074946880E0	2.290619049E0
3.001721719E1	-8.373618126E-2	-1.782471657E0	2.724670172E0	3.256999309E0
3.003555594E1	2.156012058E-1	-1.685877323E0	2.934685469E0	3.391319069E0
3.005389469E1	-3.455114365E-2	-7.905759811E-1	2.782163382E0	2.892514001E0
3.007223339E1	-8.251829147E-1	-1.253747940E-1	2.528658867E0	2.662848352E0
3.009057214E1	-8.436653614E-1	2.167596817E-1	2.708075762E0	2.844719728E0
3.010891089E1	-6.582989693E-1	1.945781708E-1	3.404433489E0	3.472950558E0
3.012724964E1	-1.426018953E0	-1.081063271E0	3.886173248E0	4.278384083E0
3.014558839E1	-1.970679283E0	-1.780826569E0	3.448718071E0	4.352996260E0
3.016392714E1	-2.144060612E0	-1.116552353E0	2.727617502E0	3.644664909E0
3.018226584E1	-2.229889631E0	3.267822266E-1	1.200873733E0	2.553682070E0
3.020060459E1	-1.775626659E0	1.735625267E0	-4.788359404E-1	2.528740588E0
3.021893058E1	4.684048891E-2	2.475746155E0	-1.575806379E0	2.935077307E0
3.023728209E1	3.434196949E0	4.048608780E0	-2.604489326E0	5.913400577E0
3.025562084E1	6.362092495E0	6.259452820E0	-2.360617399E0	9.231981641E0
3.027395959E1	5.969767570E0	5.644253731E0	-2.585774899E0	8.612894801E0
3.029229829E1	2.187705040E0	2.968188286E0	-3.221692324E0	4.896477966E0
3.031063704E1	-7.944094390E-2	1.420973778E0	-3.453404188E0	3.735167711E0
3.032896303E1	-1.911543131E0	6.565942764E-1	-4.875664711E0	5.277993895E0
3.034731454E1	-3.790403128E0	-2.234869003E-1	-4.751747131E0	6.082450416E0
3.036565329E1	-5.408005238E0	-9.404516220E-1	-2.753167391E0	6.140920174E0
3.038397923E1	-3.780031204E0	-2.191888809E0	-1.496391416E0	4.618679435E0
3.040233079E1	-2.071237564E-2	-3.640068054E0	-7.088255882E-2	3.640817048E0
