"Time (s)"	"Linear Acceleration x (m/s^2)"	"Linear Acceleration y (m/s^2)"	"Linear Acceleration z (m/s^2)"	"Absolute acceleration (m/s^2)"
1.249088120E-1	9.509678483E-1	-2.390284061E0	-7.820783854E-1	2.688762605E0
1.432500620E-1	1.249764204E0	-1.664330482E0	-8.718729019E-2	2.083148613E0
1.615913120E-1	1.127093077E0	-9.110183716E-1	-3.636214733E-1	1.494159915E0
1.799325620E-1	6.228130460E-1	-8.480749130E-1	-5.827884674E-1	1.202817337E0
1.982738120E-1	8.432722092E-2	-1.230457306E0	-4.346580505E-1	1.307694109E0
2.166150620E-1	-2.463073134E-1	-8.647680283E-1	-6.193257570E-1	1.091812909E0
2.349563120E-1	-2.357874513E-1	4.446907043E-1	-1.176698804E0	1.279830309E0
2.532975620E-1	9.431749582E-2	1.881692886E0	-8.297421932E-1	2.058673363E0
2.716388120E-1	2.291304320E-1	2.287583351E0	1.963841915E-1	2.307402239E0
2.899800620E-1	1.682674885E-1	2.108964920E0	1.026527643E0	2.351553951E0
3.083213120E-1	3.984781802E-1	2.494680405E0	1.042565107E0	2.732975884E0
3.266625100E-1	1.369786620E0	3.240922928E0	1.477746487E0	3.816232630E0
3.450037600E-1	1.777752757E0	2.735177040E0	1.536263466E0	3.605787534E0
3.633450100E-1	2.015940666E0	1.793777466E0	2.283103704E0	3.534715956E0
3.816862600E-1	2.195929050E0	1.937381744E0	2.199745655E0	3.662571960E0
4.000274580E-1	2.398466349E0	3.371553421E0	2.392271519E0	4.779432635E0
4.183687080E-1	2.362675190E0	3.123682022E0	3.321042776E0	5.135070452E0
4.367099580E-1	1.417874455E0	1.404072762E0	3.580753326E0	4.099217325E0
4.550384480E-1	7.277681231E-1	-1.326303482E-1	3.274356127E0	3.356880292E0
4.733924580E-1	1.001369238E0	-1.863546371E-1	2.758024693E0	2.940096700E0
4.917337080E-1	2.166582108E0	-6.031999588E-1	4.262171745E0	4.819132308E0
5.100621460E-1	2.534249544E0	-1.647446156E0	4.307417870E0	5.262161941E0
5.284162080E-1	2.136223078E0	-2.945306778E0	2.783610582E0	4.581131839E0
5.467574060E-1	1.647686005E0	-4.131896019E0	6.973111629E-1	4.502629980E0
5.650858960E-1	1.018422365E0	-4.149729252E0	-1.268701553E0	4.457245855E0
5.834398540E-1	8.964934945E-1	-3.580766678E0	-2.313573122E0	4.356398877E0
6.017811040E-1	7.196164131E-1	-3.132802963E0	-1.544224501E0	3.566080691E0
6.201095420E-1	1.172159433E0	-2.530357838E0	8.218185902E-1	2.907241703E0
6.384635520E-1	1.165089846E0	-2.053563118E0	1.255128860E0	2.673930494E0
6.568048540E-1	7.625980973E-1	-1.538512230E0	3.651678562E-1	1.755540744E0
6.751460520E-1	5.161935687E-1	-1.523776054E0	-5.913140774E-1	1.714059976E0
6.934872500E-1	2.494142652E-1	-5.910310745E-1	-1.124210358E0	1.294362443E0
7.118285000E-1	7.837501764E-1	2.407674789E-1	-1.594218969E0	1.792698368E0
7.301697500E-1	1.156451941E0	9.641418457E-1	-9.202634096E-1	1.764606283E0
7.485110000E-1	1.350938201E0	1.132465363E0	-5.755198002E-2	1.763752831E0
7.668521980E-1	1.390331030E0	1.654112816E0	-2.887604237E-1	2.180021138E0
7.851933960E-1	1.142755985E0	2.346666336E0	-4.119071960E-1	2.642423447E0
8.035346460E-1	1.061603665E0	2.318898201E0	-5.261203051E-1	2.604053337E0
8.218758960E-1	1.131090999E0	2.075080872E0	-4.904603958E-1	2.413685744E0
8.402043330E-1	1.795117021E0	1.225786209E0	1.366332650E0	2.567462144E0
8.585583440E-1	1.641470671E0	1.563434601E-1	2.895450592E0	3.332041922E0
8.768995420E-1	-2.818344235E-1	1.587371826E-1	1.015836954E0	1.066092328E0
8.952279790E-1	-2.259654760E0	1.528333664E0	-2.049594402E0	3.412137254E0
9.135820420E-1	-2.868684530E0	2.453817368E0	-1.800645471E0	4.182450803E0
9.319232390E-1	-8.167353868E-1	2.627644539E0	2.599400520E0	3.785294649E0
9.502516770E-1	8.341928720E-1	2.058228493E0	6.474006176E0	6.844336216E0
9.686056870E-1	5.529197454E-1	4.663133621E-1	5.512353420E0	5.559605078E0
9.869468850E-1	-3.147446811E-1	-7.604703903E-1	1.555680156E0	1.759977323E0
1.005275323E0	-9.073562622E-1	-2.054578781E0	-5.135499239E-1	2.303979791E0
1.023629333E0	-1.423008740E-1	-2.052469254E0	4.807934761E-1	2.112827949E0
1.041970583E0	1.726900816E0	-1.613239288E0	3.687216997E0	4.379531552E0
1.060299021E0	2.385363340E0	-1.634946823E0	4.825175762E0	5.625418253E0
1.078652979E0	1.426649690E0	-2.743970871E0	2.386793137E0	3.906595315E0
1.096994229E0	4.321930408E-1	-5.163039207E0	1.644881487E0	5.435935962E0
1.115322667E0	-3.071088791E-1	-2.653858662E0	-3.509981632E-1	2.694528042E0
1.133676625E0	1.069046259E0	-2.509679794E0	9.321312904E-1	2.882745448E0
1.152017875E0	1.285902500E0	-1.333025932E0	1.627266407E0	2.465461283E0
1.170359073E0	5.921195745E-1	-1.174463272E0	-4.037809372E-2	1.315902716E0
1.188700271E0	1.148420647E-1	-1.315662384E0	2.304673195E-1	1.340623509E0
1.207041521E0	-7.938817143E-4	-5.851335526E-1	3.001105785E-1	6.576079865E-1
1.225382667E0	-3.392678499E-2	1.986064911E-1	3.110663891E-1	3.706182179E-1
1.243723917E0	1.259271950E-1	5.301713943E-1	1.003880739E0	1.142241614E0
1.262065114E0	-2.492225170E-1	6.486377716E-1	6.313004494E-1	9.388200462E-1
1.280406312E0	-1.952440739E-1	9.670534134E-1	1.153040171E0	1.517502615E0
1.298747510E0	5.444428325E-1	1.449982643E0	2.060729742E0	2.577881831E0
1.317088760E0	9.301469326E-1	1.362452507E0	2.128081799E0	2.692616254E0
1.335429958E0	1.501983047E0	8.928499222E-1	2.740690708E0	3.250310695E0
1.353771208E0	1.471938133E0	9.929037094E-1	2.031542778E0	2.698078150E0
1.372112354E0	1.283146381E0	1.342300415E0	7.003166676E-1	1.984610409E0
1.390453604E0	1.457578659E0	1.781434059E0	1.740730286E0	2.885859453E0
1.408794750E0	1.312269092E0	1.245606422E0	3.054043055E0	3.549755556E0
1.427136000E0	7.571724057E-1	3.667240143E-1	2.622418642E0	2.754065375E0
1.445477198E0	5.729957223E-1	4.095077515E-3	1.586465597E0	1.686776203E0
1.463818396E0	1.399064422E0	-4.494924545E-1	2.991811037E0	3.333220365E0
1.482159594E0	2.135726929E0	-1.230740547E0	4.520840645E0	5.149179735E0
1.500500792E0	2.042568922E0	-1.996604919E0	3.531049490E0	4.541676949E0
1.518841989E0	1.640362620E0	-2.337128639E0	9.281134605E-1	3.002391447E0
1.537183239E0	1.492274761E0	-2.370991707E0	-5.852048397E-1	2.861983637E0
1.555524437E0	1.570536375E0	-2.356694221E0	-6.454312801E-1	2.904681342E0
1.573865583E0	1.330311656E0	-1.980505943E0	-2.749037743E-1	2.401604667E0
1.592206781E0	1.374519110E0	-2.025050640E0	1.034607649E0	2.657168769E0
1.610547979E0	1.346118450E0	-1.660041809E0	7.349762917E-1	2.260080494E0
1.628889229E0	1.288305998E0	-1.153365135E0	-8.613753319E-2	1.731301000E0
1.647230375E0	1.006853938E0	-8.911266327E-1	-6.649768353E-1	1.500018573E0
1.665571573E0	8.067412376E-1	-7.049942017E-1	-6.376440525E-1	1.246771104E0
1.683912823E0	1.068739772E0	-2.841634750E-1	-4.416925907E-1	1.190817335E0
1.702253969E0	1.360630512E0	-1.637992859E-1	2.023558617E-1	1.385313499E0
1.720595167E0	1.157655716E0	-2.719545364E-1	1.140713692E-1	1.194628940E0
1.738936364E0	6.989453435E-1	-1.273756027E-1	-4.025321007E-1	8.165667330E-1
1.757277562E0	7.007899284E-1	3.462152481E-1	1.743628979E-1	8.008582534E-1
1.775618760E0	7.410842776E-1	6.563749313E-1	1.117522717E0	1.492947078E0
1.793959958E0	9.841659069E-1	9.043846130E-1	1.913718224E0	2.334268943E0
1.812301156E0	1.353662729E0	8.138008118E-1	3.054036140E0	3.438286098E0
1.830629542E0	1.673952818E0	1.051960945E0	3.756759167E0	4.245230183E0
1.848983500E0	1.576757431E0	1.009384155E0	3.815255165E0	4.249846155E0
1.867324698E0	4.088795185E-2	9.358730316E-1	1.409990072E0	1.692808955E0
1.885653135E0	-1.632045865E0	1.027413368E0	-1.444474101E0	2.409493176E0
1.904007042E0	-1.308332443E0	1.925392151E0	-6.404008865E-1	2.414328481E0
1.922348239E0	4.188543260E-1	1.916033745E0	3.700539351E0	4.188151829E0
1.940676677E0	8.050400019E-1	7.684707642E-1	4.942543983E0	5.066298229E0
1.959030635E0	-2.071250081E-1	-2.896604538E-1	2.482110977E0	2.507524447E0
1.977371781E0	-1.014372349E0	-1.322384834E0	1.973619461E-1	1.678274307E0
1.995700219E0	-1.014638186E0	-2.002257347E0	-6.496640444E-1	2.336790214E0
2.014054177E0	-2.336220741E-1	-2.202988148E0	-4.460544586E-1	2.259801016E0
2.032395375E0	6.467718482E-1	-2.472908497E0	3.101232052E-1	2.574833327E0
2.050736521E0	1.223486185E0	-2.492504120E0	9.427952766E-1	2.932295716E0
2.069077667E0	1.114460945E0	-2.924154282E0	1.091177464E0	3.314116733E0
2.087418864E0	9.004431963E-1	-3.374047756E0	1.048896074E0	3.646255502E0
2.105760062E0	7.484525442E-1	-3.360550880E0	1.007773876E0	3.587351616E0
2.124101208E0	1.000144839E0	-2.803579330E0	1.196088791E0	3.207954981E0
2.142442406E0	9.511698484E-1	-2.011393547E0	1.026915550E0	2.450506811E0
2.160783552E0	6.495010853E-1	-1.308828354E0	4.978578091E-1	1.543614498E0
2.179124802E0	6.227787733E-1	-8.896265030E-1	2.593412399E-1	1.116488510E0
2.197465948E0	7.581821680E-1	-5.993909836E-1	4.398646355E-1	1.061880713E0
2.215807146E0	9.560284615E-1	-2.413167953E-1	8.655064106E-1	1.311992973E0
2.234148292E0	8.690026999E-1	4.988155365E-1	6.219129562E-1	1.179304183E0
2.252489437E0	1.899280846E-1	1.262958527E0	3.240354061E-1	1.317625084E0
2.270830635E0	-2.591034174E-1	1.609508514E0	3.165686131E-1	1.660682970E0
2.289171833E0	-5.756822228E-2	2.003561974E0	7.419462204E-1	2.137301775E0
2.307512979E0	1.132926702E0	2.586556435E0	2.858162165E0	4.017821308E0
2.325841364E0	2.042390823E0	2.681633949E0	5.467034817E0	6.422693407E0
2.344195323E0	1.225882292E0	2.086521149E0	3.897132397E0	4.587373847E0
2.362536469E0	1.094968915E-1	1.930215836E0	1.283298254E0	2.320469166E0
2.380877614E0	2.645661831E-1	1.724214554E0	1.620983839E0	2.381281105E0
2.399218812E0	1.163425326E0	1.010491371E0	3.785369396E0	4.087012695E0
2.417559958E0	1.510515571E0	-1.678037643E-1	3.833884478E0	4.124134525E0
2.435888344E0	1.230394006E0	-1.445609093E0	2.406449556E0	3.065070069E0
2.454242302E0	1.324964523E0	-2.341265678E0	1.584715128E0	3.122239261E0
2.472583500E0	1.880672097E0	-2.410181999E0	1.029567003E0	3.225819744E0
2.490924594E0	2.383871078E0	-2.096892834E0	5.361845493E-1	3.219828372E0
2.509265792E0	2.612639189E0	-1.392840385E0	4.994149208E-1	3.002549439E0
2.527606937E0	2.447389126E0	-9.801282883E-1	8.537039757E-1	2.771132525E0
2.545948135E0	2.371543884E0	-7.848529816E-1	1.488818169E0	2.908056763E0
2.564289281E0	1.922299266E0	-1.530267715E0	1.330121279E0	2.793953537E0
2.582630427E0	9.421788454E-1	-2.673862934E0	-1.239509583E-1	2.837711720E0
2.600958812E0	3.140390515E-1	-3.286919594E0	-1.538655758E0	3.642790480E0
2.619312719E0	5.136786699E-1	-2.911755085E0	-1.924371123E0	3.527802102E0
2.637653917E0	7.574290037E-1	-2.382295132E0	-1.427650690E0	2.878752383E0
2.655995062E0	8.236030340E-1	-1.831451416E0	-1.531657457E0	2.525571384E0
2.674336208E0	8.999399543E-1	-1.181368828E0	-1.775626540E0	2.314816157E0
2.692677354E0	6.868818998E-1	-7.026576996E-1	-1.559622526E0	1.843354825E0
2.711018552E0	5.471774340E-1	-5.380086899E-1	-6.244485378E-1	9.893394114E-1
2.729359646E0	5.909748673E-1	-2.165880203E-1	3.660924435E-1	7.281382709E-1
2.747700844E0	8.401930332E-1	3.991575241E-1	9.261949062E-1	1.312664491E0
2.766029229E0	8.103569746E-1	1.353442192E0	8.092217445E-1	1.772942195E0
2.784383135E0	6.528737545E-1	1.909412384E0	1.204119444E0	2.349894344E0
2.802724281E0	1.116856813E0	2.499952316E0	2.215743303E0	3.522307356E0
2.821052614E0	1.854722381E0	3.237421036E0	3.571296453E0	5.164789292E0
2.839406573E0	1.885519266E0	3.401261330E0	4.180542946E0	5.709702344E0
2.857747719E0	2.257519960E-1	2.743940353E0	2.172591448E0	3.507182092E0
2.876076104E0	-1.443653703E0	1.916913033E0	9.380269051E-2	2.401560021E0
2.894430010E0	-1.225888848E0	1.235826492E0	1.203402996E0	2.116187458E0
2.912771156E0	4.856017828E-1	6.843748093E-1	4.557480812E0	4.634092071E0
2.931099542E0	1.243156672E0	-2.871427536E-1	5.356211662E0	5.506077809E0
2.949453448E0	3.244238496E-1	-1.206265450E0	2.395012617E0	2.701187258E0
2.967794594E0	-7.839694619E-1	-1.794437885E0	-2.446467876E-1	1.973440522E0
2.986122927E0	-6.986250281E-1	-1.710078239E0	-6.380903721E-1	1.954380679E0
3.004476885E0	1.917439997E-1	-1.345945358E0	8.374619484E-2	1.362111631E0
3.022818031E0	8.734908700E-1	-1.504728794E0	9.355456829E-1	1.975459635E0
3.041159177E0	1.063454866E0	-1.904872894E0	1.154419661E0	2.468230489E0
3.059500323E0	9.352355003E-1	-2.905264854E0	1.074295759E0	3.235636057E0
3.077841469E0	6.401047707E-1	-3.938489437E0	5.251290798E-1	4.024573731E0
3.096182562E0	3.431115448E-1	-4.094431877E0	-1.604206562E-1	4.111913510E0
3.114523760E0	3.380750418E-1	-3.120784760E0	-6.950738430E-1	3.215076966E0
3.132864854E0	5.407740474E-1	-2.319385529E0	-3.299133778E-1	2.404335384E0
3.151206000E0	8.741079569E-1	-1.807277679E0	4.900956154E-1	2.066521484E0
3.169547146E0	1.068415165E0	-1.505786419E0	9.118261337E-1	2.059206304E0
3.187888292E0	6.158908010E-1	-1.138511658E0	5.495920181E-1	1.406265146E0
3.206229385E0	1.557638943E-1	-5.651903152E-1	-3.115277290E-1	6.638915643E-1
3.224570531E0	4.984912872E-1	9.056396484E-1	-4.362475872E-1	1.122046654E0
3.242911677E0	1.160995722E0	2.259400368E0	8.062663078E-1	2.665120344E0
3.261240010E0	1.507197738E0	2.642832756E0	2.691505671E0	4.062070011E0
3.279593969E0	1.293900132E0	2.131979942E0	3.073517084E0	3.958032755E0
3.297935114E0	6.771851778E-1	1.305137634E0	2.189837933E0	2.637679696E0
3.316276208E0	4.821937680E-1	8.840599060E-1	1.440038443E0	1.757208998E0
3.334617354E0	9.359561205E-1	1.406719208E0	2.245579958E0	2.810249479E0
3.352958448E0	1.901177645E0	1.526221275E0	4.401656151E0	5.031739728E0
3.371299594E0	1.996651769E0	7.225322723E-1	4.594484329E0	5.061418519E0
3.389640739E0	1.571023703E0	-1.182031631E-1	2.784168005E0	3.199012182E0
3.407981833E0	1.273147583E0	-5.256757736E-1	9.482505322E-1	1.672249640E0
3.426322979E0	1.528185487E0	-1.005062103E0	6.095008850E-1	1.927950218E0
3.444664125E0	1.973934650E0	-9.925737381E-1	1.046319962E0	2.444668912E0
3.463005219E0	2.432389736E0	-7.470541000E-1	1.127925396E0	2.783311940E0
3.481346364E0	2.634470701E0	-6.373443604E-1	9.848678112E-1	2.883853033E0
3.499687510E0	2.528463602E0	-1.287031174E0	1.306135893E0	3.123390529E0
3.518028604E0	2.127795935E0	-1.790603638E0	1.396944046E0	3.112110151E0
3.536369750E0	1.580797195E0	-2.371376038E0	9.831809998E-1	3.014795012E0
3.554710844E0	8.262667060E-1	-3.147549152E0	-1.028723717E-1	3.255820183E0
3.573051989E0	1.325288415E-1	-3.678072453E0	-1.380719900E0	3.930924612E0
3.591380323E0	1.602286100E-1	-3.229855537E0	-1.985610843E0	3.794771458E0
3.609734229E0	6.290975809E-1	-2.159844398E0	-1.953015924E0	2.979087577E0
3.628075375E0	8.631251454E-1	-1.240136623E0	-1.355472565E0	2.029834903E0
3.646403708E0	9.626938105E-1	-4.329223633E-1	-3.975477219E-1	1.127938534E0
3.664757614E0	8.666678071E-1	4.774332047E-1	-1.144409180E-3	9.894730226E-1
3.683098708E0	1.036735177E0	1.074132919E0	-1.821196079E-1	1.503911203E0
3.701439854E0	1.293700457E0	1.679271698E0	1.331932545E-1	2.123994998E0
3.719781000E0	1.130178690E0	1.759269714E0	7.552592754E-1	2.223229716E0
3.738122094E0	7.162666917E-1	1.176867485E0	8.791375160E-1	1.634300408E0
3.756463187E0	4.660708308E-1	6.255750656E-1	1.126978159E0	1.370637061E0
3.774804333E0	7.551686168E-1	9.198064804E-1	1.634584904E0	2.021927647E0
3.793145427E0	6.804478168E-1	1.725368500E0	2.576257229E0	3.174430185E0
3.811473760E0	-1.003138542E0	1.461820602E0	1.235798836E0	2.161112022E0
3.829827667E0	-2.359073162E0	1.363031387E0	2.638268471E-2	2.724660858E0
3.848168812E0	-1.248757005E0	1.438776016E0	2.285371542E0	2.975297223E0
3.866497146E0	1.308856249E0	2.093460083E0	6.123000145E0	6.602030792E0
3.884851000E0	1.902899146E0	1.889261246E0	6.518394470E0	7.048389865E0
3.903192094E0	5.606126785E-1	3.383178711E-1	4.038887501E0	4.091620437E0
3.921520427E0	-7.189632654E-1	-7.820959091E-1	8.075900078E-1	1.334460119E0
3.939874333E0	-1.118320465E0	-1.601713181E0	-5.927751064E-1	2.041447551E0
3.958215427E0	-6.511919498E-1	-2.462111950E0	-3.270912170E-2	2.546981762E0
3.976556573E0	-2.679312229E-2	-2.727045059E0	7.058918476E-1	2.817050927E0
3.994897667E0	3.921752572E-1	-2.983749390E0	1.169525385E0	3.228676428E0
4.013238812E0	7.347121239E-1	-3.243944168E0	1.234765291E0	3.547903747E0
4.031579906E0	6.654931307E-1	-3.703858852E0	9.887721539E-1	3.890902450E0
4.049921000E0	3.582756519E-1	-4.165186405E0	5.916047096E-1	4.222219246E0
4.068262094E0	4.668551683E-1	-3.770051479E0	-2.156808376E-1	3.804965194E0
4.086603187E0	5.568573475E-1	-3.185211182E0	-5.161228180E-1	3.274453106E0
4.104944333E0	6.468214989E-1	-2.409515858E0	-3.047907352E-1	2.513372657E0
4.123285427E0	7.642241120E-1	-1.370779037E0	-6.226830482E-1	1.688433547E0
4.141613760E0	6.644845605E-1	-4.225912094E-1	-7.828978300E-1	1.110428779E0
4.159967614E0	6.281254888E-1	4.300174713E-1	3.355894089E-1	8.319115978E-1
4.178308760E0	6.096596718E-1	1.613577843E0	9.662489891E-1	1.977107857E0
4.196637042E0	4.465520978E-1	2.560026169E0	9.947822094E-1	2.782576936E0
4.214990948E0	-4.534746706E-2	2.499516487E0	1.050553560E0	2.711697226E0
4.233332042E0	-4.073781371E-1	2.340015411E0	7.281796932E-1	2.484325812E0
4.251673135E0	-6.472781301E-2	2.329337120E0	1.260526657E0	2.649326058E0
4.270014229E0	9.458710551E-1	2.733766556E0	3.170935869E0	4.292200592E0
4.288355375E0	1.185433149E0	2.914494514E0	3.293870449E0	4.555119380E0
4.306696469E0	4.859814346E-1	2.759690285E0	2.036361694E0	3.463933800E0
4.325037562E0	4.136252105E-1	2.278589249E0	1.618559599E0	2.825383152E0
4.343378656E0	8.191233277E-1	1.693226814E0	2.242755413E0	2.927102990E0
4.361706989E0	1.029953718E0	6.406364441E-1	2.138360500E0	2.458415210E0
4.380060844E0	7.833487988E-1	-7.716455460E-1	1.292980194E0	1.697312573E0
4.398401937E0	6.684870720E-1	-2.172051907E0	1.150897741E0	2.547400648E0
4.416743083E0	1.133631110E0	-2.426456451E0	1.662431002E0	3.152219415E0
4.435084125E0	2.011069059E0	-1.567411423E0	1.907635689E0	3.184376116E0
4.453425271E0	2.372061729E0	-1.002586365E0	1.317037344E0	2.892480533E0
4.471753604E0	1.945903063E0	-1.605369568E0	3.127827644E-1	2.541964444E0
4.490107458E0	1.439174414E0	-2.605076313E0	-7.367534637E-1	3.066015534E0
4.508448500E0	1.172703385E0	-3.179249287E0	-1.697056890E0	3.789836585E0
4.526789594E0	1.505555153E0	-3.506898880E0	-1.173801064E0	3.992849235E0
4.545130739E0	1.833803654E0	-2.941999435E0	-7.727147341E-1	3.551800188E0
4.563471781E0	1.570022464E0	-2.388524532E0	-9.515848160E-1	3.012562637E0
4.581812875E0	1.284371495E0	-1.901097298E0	-7.289844751E-1	2.407322047E0
4.600153969E0	1.228905559E0	-1.167318344E0	-7.738183737E-1	1.863232638E0
4.618495062E0	1.403984785E0	-5.527153015E-1	-5.328935385E-1	1.600200926E0
4.636836156E0	1.502959847E0	-3.768692017E-1	-4.884349108E-1	1.624649919E0
4.655177302E0	1.583899379E0	1.746768951E-1	-3.898024559E-2	1.593978896E0
4.673518344E0	1.483158469E0	8.279018402E-1	-1.045480967E-1	1.701796347E0
4.691859437E0	1.312842846E0	1.189755440E0	4.935369492E-1	1.839199028E0
4.710200531E0	1.405393004E0	1.577280998E0	1.875230074E0	2.824788961E0
4.728541625E0	1.545257330E0	2.072978973E0	2.373759270E0	3.509956568E0
4.746869958E0	1.518107653E0	1.422119141E0	3.343886852E0	3.938102713E0
4.765223760E0	1.121431947E0	1.060535431E0	3.531148911E0	3.853745923E0
4.783564906E0	-2.061321735E-1	1.434786797E0	1.846792221E0	2.347710615E0
4.801893187E0	-1.548641801E0	1.899403572E0	-4.504328966E-1	2.491769482E0
4.820247094E0	-1.436104298E0	2.573652267E0	-5.683288574E-1	3.001512825E0
4.838588135E0	3.914384544E-1	3.010890961E0	2.973597765E0	4.249820244E0
4.856916417E0	1.319658041E0	2.621665955E0	5.058139324E0	5.848025577E0
4.875270271E0	2.293961197E-1	1.074442863E0	3.208157539E0	3.391065444E0
4.893611417E0	-1.186974645E0	-6.891250610E-1	5.361012220E-1	1.473501502E0
4.911939698E0	-1.568838239E0	-1.737267017E0	-7.544162273E-1	2.459368609E0
4.930293552E0	-9.030950069E-1	-1.816284657E0	-4.519635439E-1	2.078158221E0
4.948634646E0	-6.085315347E-2	-1.543751717E0	9.955723286E-1	1.837943615E0
4.966962927E0	6.914958954E-1	-1.345954895E0	2.726377010E0	3.118155345E0
4.985316833E0	1.036114812E0	-1.901453972E0	3.541917086E0	4.151413946E0
5.003657875E0	8.774271011E-1	-2.838598251E0	2.879333019E0	4.137399786E0
5.021986208E0	5.307149291E-1	-3.477144718E0	1.392256975E0	3.782931828E0
5.040340010E0	1.290622056E-1	-3.594737530E0	-3.114347458E-1	3.610510568E0
5.058681104E0	1.892643869E-1	-3.307711124E0	-5.511503220E-1	3.358651600E0
5.077022198E0	7.120994329E-1	-2.847455025E0	3.246426582E-2	2.935326157E0
5.095363292E0	6.032140255E-1	-2.432082653E0	8.359003067E-2	2.507165827E0
5.113704333E0	3.202778101E-1	-1.617181778E0	4.882645607E-2	1.649314646E0
5.132032667E0	-2.695436776E-2	-6.694736481E-1	-5.455877781E-1	8.640529654E-1
5.150386469E0	-2.779113054E-1	1.333618164E-2	-1.182621479E0	1.214909919E0
5.168727562E0	-2.307579070E-1	3.359642029E-1	-4.951189756E-1	6.412986491E-1
5.187068656E0	-1.364314556E-2	1.032184601E0	6.023210287E-1	1.195149282E0
5.205409698E0	3.188866675E-1	1.608922958E0	1.464714289E0	2.199024725E0
5.223750792E0	3.950433731E-1	1.938271523E0	1.509043932E0	2.488005094E0
5.242091833E0	1.025516510E0	2.216400146E0	2.044578552E0	3.185029855E0
5.260432979E0	1.713696122E0	2.887975693E0	3.262592077E0	4.682057781E0
5.278774021E0	1.356299400E0	2.550341606E0	2.363321543E0	3.732168148E0
5.297115114E0	6.695696712E-1	2.283363342E0	1.172915459E0	2.652885669E0
5.315456156E0	6.255957484E-1	2.494992256E0	6.451897621E-1	2.651909921E0
5.333797250E0	8.280088902E-1	2.258911133E0	1.810989618E0	3.011305635E0
5.352125531E0	6.623784900E-1	8.445291519E-1	2.509866238E0	2.729725862E0
5.370479333E0	3.907414675E-1	-3.144950867E-1	1.919662476E0	1.984109391E0
5.388820427E0	7.857629061E-1	-8.296422958E-1	1.732093096E0	2.075060523E0
5.407161521E0	1.525324106E0	-1.137928963E0	1.610907316E0	2.493294675E0
5.425502562E0	2.239257336E0	-1.069138527E0	1.427148581E0	2.862530991E0
5.443843656E0	2.059127331E0	-1.101789474E0	1.143986464E0	2.600509650E0
5.462171937E0	1.359285593E0	-1.950232506E0	7.158222198E-1	2.482632796E0
5.480525792E0	8.387200832E-1	-2.673479080E0	1.532294750E-1	2.806139883E0
5.498866833E0	9.102177620E-1	-2.854868889E0	8.077650070E-1	3.103426663E0
5.517207875E0	1.133728623E0	-2.403459549E0	1.202486753E0	2.916836092E0
5.535548969E0	7.653227448E-1	-2.012774467E0	-3.144264221E-3	2.153367095E0
5.553890010E0	2.897863984E-1	-1.907737255E0	-1.356621265E0	2.358783341E0
5.572231104E0	3.155527711E-1	-1.726221561E0	-1.429736376E0	2.263528338E0
5.590572198E0	7.128649354E-1	-1.166923523E0	-6.004567146E-1	1.493464158E0
5.608913239E0	1.007209539E0	-4.957065582E-1	-4.045345783E-1	1.193249460E0
5.627254281E0	1.055433512E0	6.600952148E-2	-1.140237570E0	1.555133072E0
5.645595375E0	9.356570840E-1	2.681455612E-1	-1.693921924E0	1.953644723E0
5.663936417E0	9.413741231E-1	3.335838318E-1	-7.533922195E-1	1.251024879E0
5.682264698E0	1.427356720E0	6.138563156E-1	1.381299019E0	2.078979019E0
5.700618500E0	1.285230756E0	9.890193939E-1	1.662327528E0	2.322350160E0
5.718959594E0	8.707474470E-1	1.239398956E0	7.114224434E-1	1.673449367E0
5.737300687E0	6.764889956E-1	1.289127350E0	4.532184601E-1	1.524760197E0
5.755641677E0	8.529853225E-1	1.244940758E0	2.273664951E0	2.728921721E0
5.773982771E0	1.322192192E0	1.092597008E0	4.933023453E0	5.222708186E0
5.792323812E0	8.880058527E-1	1.127666473E0	4.029868603E0	4.277853086E0
5.810664854E0	-5.895705223E-1	1.082187653E0	-1.277706623E-1	1.238970887E0
5.829005948E0	-1.456744790E0	1.786314011E0	-2.605325222E0	3.478612172E0
5.847334177E0	-4.088222980E-1	2.354955673E0	9.354600906E-1	2.566717257E0
5.865688031E0	1.045587182E0	1.681856155E0	6.080220222E0	6.394604807E0
5.884029073E0	7.498103976E-1	1.301898956E-1	5.868315697E0	5.917456731E0
5.902357354E0	-7.432916164E-1	-1.001494408E0	2.060769558E0	2.408784890E0
5.920711208E0	-1.632303476E0	-1.339142799E0	-8.848671913E-1	2.289259274E0
5.939052250E0	-1.230950594E0	-8.804893494E-1	-4.337387085E-1	1.574366579E0
5.957393292E0	-1.117458344E-1	-5.946311951E-1	1.411598682E0	1.535800843E0
5.975734333E0	7.514507771E-1	-6.501150131E-1	1.927221060E0	2.168296293E0
5.994075375E0	8.027213812E-1	-1.559725761E0	9.476482868E-1	1.993776151E0
6.012403656E0	3.814281523E-1	-3.142447472E0	-2.892208099E-2	3.165643700E0
6.030757510E0	1.017073393E-1	-4.149140358E0	-4.799501896E-1	4.178045270E0
6.049098552E0	2.410687804E-1	-3.512698650E0	-8.997633457E-1	3.634107874E0
6.067439594E0	5.531262159E-1	-2.763295650E0	-7.756423950E-1	2.922904820E0
6.085780635E0	5.071396828E-1	-2.409283161E0	-7.658643723E-1	2.578446091E0
6.104121729E0	4.647087157E-1	-2.486754894E0	-3.647987843E-1	2.555969923E0
6.122462719E0	3.786015809E-1	-2.208776474E0	8.905935287E-2	2.242758176E0
6.140803760E0	1.859366894E-1	-1.536446571E0	-1.036548615E-2	1.547691172E0
6.159144802E0	3.481832743E-1	-3.557167053E-1	-1.225907803E-1	5.126348275E-1
6.177473083E0	2.251972854E-1	6.184616089E-1	1.127710342E-1	6.677768229E-1
6.195826937E0	5.408495665E-2	1.483283997E0	4.334850311E-1	1.546274836E0
6.214167927E0	2.413622439E-1	1.990455627E0	1.452892303E0	2.476098823E0
6.232496260E0	9.493216276E-1	2.387112617E0	3.260047436E0	4.150593630E0
6.250850010E0	1.447834730E0	2.396367073E0	4.889244556E0	5.634138167E0
6.269191052E0	9.114479423E-1	2.485830307E0	3.655352831E0	4.513501300E0
6.287519333E0	-8.675420284E-2	2.729109764E0	3.660011292E-1	2.754908932E0
6.305873135E0	-3.030008078E-1	3.114794731E0	-7.245453596E-1	3.212276714E0
6.324214177E0	7.723058462E-1	2.751853943E0	2.218189001E0	3.617944014E0
6.342542458E0	1.499828458E0	1.408672333E0	4.703965187E0	5.134309265E0
6.360896260E0	1.328965902E0	-3.366556168E-1	4.473479271E0	4.678835770E0
6.379237302E0	1.076430798E0	-1.297003746E0	2.738926888E0	3.215997897E0
6.397565531E0	1.383677721E0	-1.869651794E0	2.265717983E0	3.247097142E0
6.415919385E0	1.795642138E0	-1.938983917E0	1.881298304E0	3.243959405E0
6.434260427E0	2.263727188E0	-1.748904228E0	1.020365477E0	3.037148743E0
6.452588656E0	2.341944695E0	-1.667344093E0	-2.718803883E-1	2.887673843E0
6.470942458E0	2.050718307E0	-1.778903961E0	-1.577005982E0	3.139568879E0
6.489283500E0	1.477962971E0	-1.827736855E0	-2.366145611E0	3.335212378E0
6.507624542E0	9.100243449E-1	-2.174973011E0	-1.257314801E0	2.671982862E0
6.525965583E0	6.860985160E-1	-2.437417030E0	2.327680588E-1	2.542816140E0
6.544306625E0	7.624990940E-1	-2.121962070E0	3.488571644E-1	2.281628633E0
6.562647614E0	6.955139041E-1	-2.166361809E0	6.040811539E-3	2.275280108E0
6.580988656E0	2.624377012E-1	-2.383302689E0	-3.817069530E-1	2.427901450E0
6.599329698E0	6.160318851E-3	-2.161313057E0	-5.946586132E-1	2.241635775E0
6.617670687E0	3.384540677E-1	-1.039603233E0	-2.303223610E-1	1.117306775E0
6.636011729E0	6.833068132E-1	-4.377651215E-1	1.271300316E-1	8.214064448E-1
6.654352771E0	4.271464944E-1	-4.514331818E-1	-6.042203903E-1	8.667919735E-1
6.672693760E0	2.878363132E-1	-3.450708389E-1	-6.601424217E-1	7.985684968E-1
6.691034802E0	3.975861669E-1	-2.973966599E-1	2.113585472E-1	5.396220611E-1
6.709375844E0	6.812154651E-1	4.203090668E-1	9.274077415E-2	8.058008890E-1
6.727716833E0	8.099349141E-1	1.001960754E0	4.123718739E-1	1.352764015E0
6.746057875E0	7.388044596E-1	7.000541687E-1	1.670133352E0	1.955825474E0
6.764398917E0	1.085808516E0	6.617546082E-1	3.288675070E0	3.525944272E0
6.782739906E0	1.033223033E0	8.560943604E-1	3.569904327E0	3.813746753E0
6.801080948E0	1.316447854E-1	7.501449585E-1	1.426783323E0	1.617330659E0
6.819421989E0	-9.143058062E-1	7.231721878E-1	-1.150554657E0	1.637897780E0
6.837763031E0	-1.387314796E0	1.554471016E0	-1.006733894E0	2.313986953E0
6.856104021E0	-4.852355719E-1	2.334887505E0	2.031798124E0	3.132946989E0
6.874445010E0	2.574038506E-2	2.420414925E0	3.405143023E0	4.177806838E0
6.892786052E0	-5.222247243E-1	1.259770393E0	2.293765545E0	2.668539016E0
6.911127042E0	-1.092869282E0	7.649803162E-2	8.116712570E-1	1.363460834E0
6.929468083E0	-6.593558788E-1	-7.717323303E-2	5.222685337E-1	8.446717138E-1
6.947809125E0	2.673763037E-1	-1.008605957E-1	1.539556265E0	1.565853263E0
6.966150114E0	8.875999451E-1	-3.571233749E-1	2.273693562E0	2.466790056E0
6.984491104E0	7.882542610E-1	-1.386358738E0	1.852042198E0	2.444053116E0
7.002819385E0	3.601401746E-1	-2.989290237E0	1.165420294E0	3.228585066E0
7.021173187E0	-3.296059370E-2	-4.311838150E0	3.882393837E-1	4.329406940E0
7.039514177E0	-7.257044315E-2	-4.776143551E0	1.444861889E-1	4.778879570E0
7.057855219E0	1.527019739E-1	-4.145855904E0	1.484637260E-1	4.151322746E0
7.076196208E0	5.122416615E-1	-3.369869232E0	3.902697563E-1	3.430848386E0
7.094537198E0	9.123245478E-1	-2.769892693E0	9.565448761E-2	2.917840193E0
7.112878239E0	7.650209069E-1	-2.611351013E0	-4.338955879E-1	2.755481171E0
7.131219229E0	1.606132090E-1	-2.117749214E0	-4.784417152E-1	2.177054159E0
7.149560219E0	-1.539975703E-1	-6.425695419E-1	-6.998744011E-1	9.625149584E-1
7.167888448E0	1.016659439E-1	1.746520042E0	-8.721724749E-1	1.954828138E0
7.186242302E0	4.025307298E-1	3.105889320E0	4.146847725E-1	3.159199728E0
7.204583292E0	1.550077051E-1	3.194778442E0	1.201941490E0	3.416913817E0
7.222924281E0	-5.636309385E-1	3.125823975E0	6.321198940E-1	3.238522953E0
7.241265323E0	-6.450911760E-1	3.447534561E0	4.757864475E-1	3.539492890E0
7.259606312E0	4.269550443E-1	3.514800072E0	2.502750158E0	4.335881515E0
7.277934489E0	1.162636995E0	2.898221970E0	4.069118023E0	5.129243302E0
7.296288344E0	7.970191240E-1	1.677968025E0	2.902416706E0	3.445988815E0
7.314629281E0	1.270849705E-1	9.722566605E-1	6.574828625E-1	1.180558054E0
7.332970323E0	-1.794061065E-2	1.454330444E0	3.660893440E-2	1.454901756E0
7.351311364E0	7.106699944E-1	1.936410904E0	1.839381695E0	2.763704769E0
7.369652302E0	1.048571944E0	1.227297783E0	2.961093664E0	3.372512218E0
7.387980583E0	7.917591333E-1	-2.198181152E-1	2.119238853E0	2.272966310E0
7.406334333E0	6.136605740E-1	-1.577335358E0	1.144010305E0	2.042871927E0
7.424675375E0	7.356948256E-1	-2.280324936E0	9.430823326E-1	2.574982131E0
7.443016364E0	1.047851562E0	-2.051838398E0	7.726950645E-1	2.430039376E0
7.461357354E0	1.120847940E0	-1.776227951E0	2.924754620E-1	2.120572502E0
7.479698344E0	1.191001773E0	-1.809509277E0	3.945596218E-1	2.201927870E0
7.498039333E0	1.346825242E0	-1.956431389E0	8.759899139E-1	2.531584551E0
7.516380375E0	1.183102131E0	-2.299884319E0	8.871822357E-1	2.734280683E0
7.534721312E0	6.654301882E-1	-2.507235527E0	-8.657479286E-2	2.595481173E0
7.553062354E0	2.445829660E-1	-2.735172272E0	-7.638913393E-1	2.850354041E0
7.571403344E0	1.129376367E-1	-2.277949333E0	-9.025756121E-1	2.452845452E0
7.589744333E0	3.807313442E-1	-1.613130569E0	-6.476634741E-1	1.779498403E0
7.608085323E0	7.055515647E-1	-1.292153358E0	2.522404194E-1	1.493682878E0
7.626426312E0	7.668036222E-1	-1.525809288E0	8.081986904E-1	1.889250354E0
7.644767302E0	6.033303738E-1	-1.414977074E0	-4.083924294E-1	1.591525066E0
7.663095531E0	5.512806177E-1	-1.142951012E0	-1.744991064E0	2.157600785E0
7.681449333E0	3.278698027E-1	-7.124996185E-2	-2.625533819E0	2.646885528E0
7.699790323E0	6.240686774E-1	1.024128914E0	-1.707515478E0	2.086602706E0
7.718118500E0	8.478934765E-1	1.999733925E0	-1.107393503E-1	2.174884439E0
7.736472302E0	1.015650153E0	2.178513527E0	1.375695229E0	2.769477168E0
7.754813292E0	1.298513174E0	2.048166275E0	2.151509047E0	3.241930402E0
7.773154281E0	1.681267023E0	2.340726852E0	2.308959961E0	3.692825084E0
7.791495271E0	1.694398642E0	2.534181595E0	2.820510864E0	4.153112646E0
7.809836260E0	6.220536828E-1	2.419816017E0	2.281508207E0	3.383450907E0
7.828164489E0	-1.070654988E0	2.374653816E0	-6.739470959E-1	2.690629580E0
7.846518239E0	-1.562162399E0	2.444694519E0	-1.845199585E0	3.438261794E0
7.864859281E0	-1.109401435E-1	2.268800735E0	1.305119038E0	2.619751934E0
7.883187458E0	1.385939598E0	1.349110603E0	5.525952816E0	5.854663313E0
7.901541208E0	1.014882326E0	-1.029787064E-1	5.393832207E0	5.489445931E0
7.919882198E0	-8.686811924E-1	-1.441511154E0	8.399636745E-1	1.880983890E0
7.938210427E0	-1.963568687E0	-2.338750839E0	-1.788392901E0	3.538884944E0
7.956564177E0	-7.736111879E-1	-1.925537109E0	-8.092737198E-2	2.076708133E0
7.974905167E0	6.225304008E-1	-9.420728683E-1	1.286744356E0	1.711945217E0
7.993246156E0	1.120352507E0	-8.496522903E-1	8.049731255E-1	1.620210013E0
8.011587146E0	7.456777692E-1	-1.491916180E0	-5.232617855E-1	1.748042368E0
8.029928135E0	2.201151848E-1	-2.821015358E0	-1.229834676E0	3.085299284E0
8.048269177E0	3.027591407E-1	-3.113671780E0	-9.410339594E-1	3.266827201E0
8.066610114E0	5.216295719E-1	-2.899626255E0	1.602737904E-1	2.950528345E0
8.084951156E0	1.065250337E-1	-2.668110847E0	6.920461655E-1	2.758458079E0
8.103292094E0	-3.131251335E-1	-2.715040684E0	7.655904293E-1	2.838242761E0
8.121633083E0	-3.802588582E-1	-2.307662487E0	6.446382999E-1	2.425997010E0
8.139974073E0	-1.556456387E-1	-1.390086174E0	7.952089310E-1	1.609012859E0
8.158302302E0	1.375562251E-1	-3.552188873E-1	6.955966949E-1	7.930680519E-1
8.176656052E0	1.257780790E-1	2.946081161E-1	-8.766698837E-2	3.321137879E-1
8.194997042E0	1.499714851E-1	1.046207428E0	-1.001495600E0	1.456033951E0
8.213325219E0	2.806885839E-1	1.896586418E0	-6.950502396E-1	2.039343266E0
8.231678969E0	1.638641357E-1	2.525172234E0	-5.059349537E-2	2.530989128E0
8.250020010E0	2.731309533E-1	2.954601288E0	1.135824561E0	3.177163314E0
8.268348187E0	7.391545773E-1	2.878252029E0	2.370605707E0	3.801375495E0
8.286701937E0	1.306183338E0	2.248223305E0	2.809910059E0	3.828343961E0
8.305042927E0	1.678211212E0	1.333930016E0	2.924871683E0	3.626380637E0
8.323383917E0	1.504927278E0	7.825183868E-1	1.487801313E0	2.256256609E0
8.341724906E0	1.727780342E0	9.604768753E-1	1.027912378E0	2.228080922E0
8.360065844E0	1.955235720E0	1.968162537E0	1.348291039E0	3.084558188E0
8.378406833E0	1.706539989E0	2.028761864E0	1.481241107E0	3.036812251E0
8.396747823E0	9.184666276E-1	1.078172684E0	1.021193504E0	1.746102361E0
8.415088812E0	-1.728198826E-1	-4.586296082E-1	-2.335320711E-1	5.429042803E-1
8.433417042E0	-8.659479022E-1	-1.991801262E0	-7.401529551E-1	2.294551031E0
8.451770739E0	-7.035722733E-1	-2.477041245E0	5.072953701E-1	2.624518215E0
8.470111729E0	3.404973745E-1	-2.031615734E0	2.055989981E0	2.910411612E0
8.488439906E0	1.096688390E0	-1.637449265E0	2.854299545E0	3.468571956E0
8.506793656E0	1.105336070E0	-1.968244076E0	1.992109776E0	3.010689942E0
8.525134646E0	7.864457369E-1	-2.247869492E0	4.262185097E-1	2.419313201E0
8.543475635E0	6.257566810E-1	-2.356194973E0	-4.754670858E-1	2.483806579E0
8.561816625E0	8.061331511E-1	-2.183610439E0	-1.993422508E-1	2.336181187E0
8.580157562E0	8.418427706E-1	-2.141283512E0	1.398694515E-1	2.305072188E0
8.598498552E0	7.768725753E-1	-2.203960419E0	-1.153354645E-1	2.339716819E0
8.616839542E0	6.533510685E-1	-2.392144203E0	-2.786207199E-1	2.495365908E0
8.635180531E0	4.030181170E-1	-2.112755775E0	-6.440213919E-1	2.245200241E0
8.653521521E0	4.559119642E-1	-1.411355019E0	-1.270112395E0	1.952681286E0
8.671862458E0	7.767899036E-1	-7.810897827E-1	-9.219068289E-1	1.436459538E0
8.690203396E0	8.658565283E-1	-4.777584076E-1	-3.583555222E-1	1.051845665E0
8.708531625E0	1.105158567E0	3.002395630E-1	-5.185847282E-1	1.257159248E0
8.726885375E0	1.109267950E0	1.039122581E0	-1.195134163E0	1.933545136E0
8.745226312E0	6.229775548E-1	1.593351364E0	-1.726676941E0	2.430695962E0
8.763567302E0	2.332902551E-1	1.906525612E0	-9.495738745E-1	2.142651347E0
8.781908292E0	7.538698912E-1	2.404954910E0	1.241693854E0	2.809614130E0
8.800249229E0	1.697667122E0	2.902882576E0	3.217501163E0	4.654150260E0
8.818577458E0	1.912482142E0	3.106629372E0	4.080554008E0	5.473541359E0
8.836931156E0	3.932796419E-1	2.415508270E0	2.416081667E0	3.439011443E0
8.855272198E0	-1.939253688E0	1.607301712E0	-5.920960903E-1	2.587412112E0
8.873613135E0	-2.620138407E0	2.087609291E0	-1.379227757E0	3.622914163E0
8.891954073E0	-4.818240106E-1	2.612160683E0	2.656002045E0	3.756312643E0
8.910295062E0	1.644391894E0	2.633213997E0	6.170784950E0	6.907707837E0
8.928623239E0	1.198520541E0	1.397399902E0	5.117718697E0	5.438770324E0
8.946976989E0	-5.370524526E-1	-2.403640747E-1	1.641274929E0	1.743554880E0
8.965317927E0	-1.440509081E0	-1.069677353E0	-7.975167036E-1	1.963494065E0
8.983646156E0	-1.107818246E0	-1.444519043E0	-1.107862711E0	2.131022364E0
9.001999906E0	-2.233821452E-1	-1.889366150E0	-1.944850683E-1	1.912440450E0
9.020340844E0	4.383876920E-1	-2.172420025E0	4.107832909E-3	2.216215109E0
9.038681833E0	2.525401115E-1	-2.315618515E0	-6.572448015E-1	2.420296747E0
9.057022771E0	-5.110911131E-1	-2.681363583E0	-1.751766086E0	3.243394704E0
9.075363760E0	-8.564568758E-1	-3.062800884E0	-1.764856100E0	3.637167124E0
9.093704698E0	-1.722166985E-1	-2.955733299E0	-7.258462906E-1	3.048421028E0
9.112045687E0	9.849355817E-1	-3.132414818E0	1.704239249E0	3.699534040E0
9.130386625E0	1.006519079E0	-2.428907394E0	1.374993443E0	2.967031978E0
9.148714802E0	-2.474680096E-1	-1.885565758E0	-3.320425749E-1	1.930505352E0
9.167068552E0	-8.892724514E-1	-1.321844101E0	-1.665784955E0	2.304976537E0
9.185409489E0	-9.158567190E-1	-1.750976086E0	-6.411951780E-1	2.077460478E0
9.203737667E0	-4.680776000E-1	-4.345874786E-1	1.278082132E0	1.428795595E0
9.222091469E0	-2.566207647E-1	8.941707611E-1	1.127952576E0	1.462078172E0
9.240432406E0	-1.390368044E-1	1.992449760E0	8.491991758E-1	2.170328667E0
9.258760583E0	9.241223335E-3	2.678169250E0	8.559477329E-1	2.811640528E0
9.277114333E0	7.140245438E-1	3.130876541E0	2.300329208E0	3.950156128E0
9.295455271E0	1.120896578E0	3.459651947E0	3.254784584E0	4.880494178E0
9.313796208E0	7.768654823E-1	3.578865051E0	1.380919695E0	3.913915461E0
9.332137198E0	8.510916233E-1	4.553695679E0	1.611051559E-1	4.635348548E0
9.350478135E0	1.545217633E0	4.652724266E0	1.192450166E0	5.045540410E0
9.368806364E0	1.745463490E0	3.265996933E0	2.832006931E0	4.661935437E0
9.387160062E0	1.583876610E0	1.630829811E0	2.604331017E0	3.456994508E0
9.405501000E0	1.189199209E0	5.065145493E-1	8.189301491E-1	1.530162847E0
9.423829229E0	1.235008717E0	-4.967117310E-1	9.255666733E-1	1.621308959E0
9.442182927E0	1.806095362E0	-1.401490211E0	2.196974039E0	3.170622998E0
9.460523864E0	1.983050227E0	-2.480312347E0	1.618358374E0	3.564199962E0
9.478852042E0	1.469258547E0	-3.880995750E0	1.872103214E-1	4.154021714E0
9.497205792E0	1.106170416E0	-4.518355370E0	-1.180723667E0	4.799297512E0
9.515546729E0	6.670591235E-1	-4.487223625E0	-1.460794568E0	4.765927455E0
9.533887667E0	6.620147228E-1	-4.155332565E0	-6.661080122E-1	4.260135221E0
9.552228656E0	6.835791469E-1	-3.833296299E0	3.766971827E-1	3.911948585E0
9.570569594E0	4.340762198E-1	-3.491465092E0	1.496934891E-2	3.518376718E0
9.588910583E0	3.062907234E-2	-3.321426392E0	-2.340794802E-1	3.329805493E0
9.607251469E0	2.761446238E-1	-2.465864658E0	-6.728862524E-1	2.570898729E0
9.625592458E0	1.095560908E0	-1.156716347E0	-2.008160353E-1	1.605793726E0
9.643920635E0	1.444711804E0	-1.682128906E-1	1.945670843E-1	1.467427724E0
9.662274333E0	1.644076228E0	8.367471695E-1	4.471561909E-1	1.898178371E0
9.680615271E0	1.108751535E0	6.000947952E-1	-9.725141525E-2	1.264476796E0
9.698956208E0	6.538759470E-1	-3.421726227E-1	-3.089756966E-1	8.000636467E-1
9.717297198E0	7.665256858E-1	-4.438781738E-2	-7.567657828E-1	1.078066026E0
9.735638135E0	7.356685996E-1	7.244758606E-1	-6.408776045E-1	1.215235642E0
9.753966312E0	4.367405176E-1	1.854036331E0	-9.594817162E-1	2.132791167E0
9.772320010E0	6.660677195E-1	2.456462860E0	4.817014933E-1	2.590345984E0
9.790661000E0	1.096329689E0	2.317704201E0	2.140289307E0	3.339839796E0
9.809001885E0	9.858878851E-1	1.957145691E0	2.968748093E0	3.689967400E0
9.827342823E0	-5.667557120E-1	1.414712906E0	1.207160354E0	1.944186401E0
9.845683760E0	-1.821887255E0	1.798984528E0	-1.027725816E0	2.758956116E0
9.864024698E0	-1.540447593E0	2.479433060E0	-2.911319733E-1	2.933483409E0
9.882365687E0	-2.197252959E-2	2.405050278E0	2.815315008E0	3.702802753E0
9.900706573E0	2.976137102E-1	1.649290085E0	3.732550621E0	4.091535878E0
9.919047562E0	-7.061935663E-1	5.841093063E-1	2.320760250E0	2.495159549E0
9.937388500E0	-1.356587768E0	6.252574921E-2	6.302921772E-1	1.497166680E0
9.955729385E0	-9.780642390E-1	-4.782009125E-2	7.017278671E-1	1.204706776E0
9.974070375E0	-2.885737419E-1	-4.740152359E-1	1.530394554E0	1.627904401E0
9.992411260E0	1.589302421E-1	-1.258139610E0	1.462776899E0	1.935946889E0
1.001075220E1	5.031698942E-1	-1.637026787E0	2.476013899E-1	1.730417028E0
1.002909314E1	4.668444097E-1	-2.212362766E0	-6.141959429E-1	2.343017151E0
1.004743407E1	2.092492580E-2	-2.766423702E0	-1.247386932E0	3.034717798E0
1.006577506E1	-2.608301640E-1	-2.951256752E0	-1.300713301E0	3.235707632E0
1.008411595E1	-2.601220012E-1	-2.869511604E0	-1.968165636E-1	2.887991874E0
1.010245688E1	-1.124067008E-1	-2.851830959E0	1.109880567E0	3.062255698E0
1.012079782E1	-1.387780458E-1	-2.349127769E0	9.439436197E-1	2.535486182E0
1.013913876E1	-1.031182855E-1	-1.747009277E0	2.946093082E-1	1.774674460E0
1.015747970E1	-9.749010205E-2	-8.085317612E-1	-8.288037777E-2	8.185945797E-1
1.017582064E1	6.398460269E-2	6.235790253E-2	2.813410759E-2	9.366998131E-2
1.019416152E1	9.370124340E-2	6.729459763E-1	4.939737320E-1	8.400275340E-1
1.021250251E1	-1.022818983E-1	1.002980232E0	8.792505264E-1	1.337726587E0
1.023084340E1	-6.202183366E-1	1.417920113E0	4.247915745E-1	1.604872616E0
1.024918433E1	-5.177834630E-1	1.852321625E0	9.201383591E-2	1.925528930E0
1.026752527E1	4.818727374E-1	2.164612770E0	1.023256302E0	2.442294667E0
1.028586616E1	1.977008581E0	2.879253387E0	2.430549860E0	4.255142256E0
1.030420709E1	2.402177811E0	3.335526466E0	2.376173973E0	4.747883507E0
1.032254803E1	9.058812261E-1	2.678554535E0	5.733021498E-1	2.885125742E0
1.034088897E1	3.731638193E-2	2.461230278E0	-3.382012844E-1	2.484638224E0
1.035921709E1	6.522305608E-1	2.634190559E0	1.194786310E0	2.965110274E0
1.037757084E1	7.038981318E-1	1.681303978E0	2.274751186E0	2.914918285E0
1.039591173E1	-1.040935218E-1	2.117614746E-1	9.751951694E-1	1.003336435E0
1.041423985E1	-2.757456303E-1	-6.324253082E-1	5.753600597E-2	6.923206014E-1
1.043259360E1	6.611269712E-1	-6.831159592E-1	8.846658468E-1	1.298603075E0
1.045093449E1	1.576596856E0	-5.324468613E-1	1.543506026E0	2.269706624E0
1.046927543E1	1.839158177E0	-9.079627991E-1	1.629659891E0	2.619673760E0
1.048761631E1	1.637233019E0	-1.598184586E0	1.158890009E0	2.564712846E0
1.050595725E1	1.085078478E0	-2.318562031E0	4.844784737E-2	2.560365675E0
1.052429814E1	4.462834299E-1	-3.030942917E0	-8.711780310E-1	3.185080066E0
1.054263907E1	1.803002954E-1	-3.134719849E0	-1.089263916E0	3.323472973E0
1.056097996E1	1.484410465E-1	-2.967427254E0	-5.907160044E-1	3.029291113E0
1.057932090E1	4.054674506E-2	-2.899734020E0	-3.177121878E-1	2.917369099E0
1.059766178E1	-6.877268851E-2	-3.012269497E0	-2.715737820E-1	3.025268504E0
1.061600272E1	-5.272923410E-2	-2.789683342E0	-8.196876049E-1	2.908092380E0
1.063433090E1	2.153971195E-1	-2.053343773E0	-1.769232035E0	2.718970129E0
1.065268454E1	4.789957702E-1	-1.090133667E0	-2.211071014E0	2.511307108E0
1.067102543E1	6.169425249E-1	-2.148933411E-1	-2.022881985E0	2.125758394E0
1.068935355E1	1.063217878E0	9.580736160E-1	-1.516110897E0	2.084929151E0
1.070770725E1	1.526987314E0	1.813032150E0	-6.526553631E-2	2.371294040E0
1.072604819E1	1.756929874E0	2.317645073E0	1.245478511E0	3.163779068E0
1.074437631E1	1.868296027E0	2.492522240E0	1.962790012E0	3.681812297E0
1.076273001E1	1.870338917E0	2.181955338E0	2.205131054E0	3.622388676E0
1.078107090E1	1.823573112E0	1.953818321E0	2.026407957E0	3.353975870E0
1.079941178E1	1.665633202E0	1.929828644E0	2.367057562E0	3.478725925E0
1.081775272E1	4.957913756E-1	1.432696342E0	1.802115202E0	2.355004692E0
1.083609360E1	-1.267666698E0	1.033519745E0	-5.056973100E-1	1.711978881E0
1.085443449E1	-1.651052952E0	2.384178162E0	-5.398821831E-1	2.949873578E0
1.087277543E1	-4.756920338E-1	2.819244385E0	2.598507166E0	3.863503760E0
1.089111631E1	2.409376502E-1	2.101694107E0	4.690614223E0	5.145583627E0
1.090945720E1	-2.153100818E-1	1.032170296E0	3.636439800E0	3.786215574E0
1.092779814E1	-1.290306568E0	-1.066751480E-1	8.609904051E-1	1.554855332E0
1.094613902E1	-1.743654490E0	-1.396218300E0	-9.643346071E-1	2.433042900E0
1.096446715E1	-1.337993741E0	-2.467113018E0	-1.461843610E0	3.164468460E0
1.098282084E1	-6.387742162E-1	-3.127723217E0	-1.340999246E0	3.462508339E0
1.100116173E1	-5.666068196E-2	-3.138198853E0	-8.706628084E-1	3.257231370E0
1.101950261E1	3.430468440E-1	-2.490862370E0	-1.594886780E-1	2.519427141E0
1.103784350E1	3.017346561E-1	-2.144164085E0	2.161617279E-1	2.176053612E0
1.105618438E1	1.139169931E-1	-2.219233990E0	5.079612732E-1	2.279473895E0
1.107452532E1	7.475614548E-4	-2.605028152E0	5.396764278E-1	2.660342625E0
1.109286621E1	-9.378665686E-2	-2.770056248E0	2.061843872E-1	2.779301990E0
1.111120709E1	-1.823087335E-1	-2.235491753E0	-2.941079140E-1	2.262113904E0
1.112954798E1	-3.121202290E-1	-1.544869423E0	-6.426734924E-1	1.702078080E0
1.114788892E1	-2.912751436E-1	-1.024385452E0	-3.020771742E-1	1.107003786E0
1.116622975E1	-2.931537330E-1	-6.361122131E-1	-3.908687830E-1	8.020949223E-1
1.118457069E1	-4.880115390E-1	-3.846626282E-1	-8.719180822E-1	1.070682839E0
1.120291152E1	-7.607026100E-1	2.816572189E-1	-1.113960028E0	1.378008053E0
1.122125246E1	-6.404690742E-1	1.290491104E0	-5.030901432E-1	1.525997253E0
1.123958053E1	-6.117738485E-1	2.510960579E0	5.768151283E-1	2.648000371E0
1.125793423E1	-4.635075331E-1	3.743679047E0	2.181029797E0	4.357391767E0
1.127627511E1	2.827473283E-1	3.248238564E0	3.356671095E0	4.679555605E0
1.129460324E1	1.287192583E0	2.488239288E0	3.436339378E0	4.433579572E0
1.131295688E1	1.628053546E0	2.132304192E0	2.300729275E0	3.534209206E0
1.133129777E1	6.476368308E-1	2.732912064E0	9.518378973E-2	2.810213829E0
1.134962584E1	5.708082914E-1	3.884223938E0	-5.538987517E-1	3.964823014E0
1.136797954E1	1.503434062E0	3.492508888E0	3.587699533E-1	3.819247071E0
1.138632043E1	2.702113867E0	2.403152466E0	1.654375434E0	3.976621581E0
1.140464855E1	3.607491732E0	1.409749031E0	3.601787567E0	5.289070108E0
1.142300220E1	3.396952629E0	-2.177391052E-1	4.919408798E0	5.982247103E0
1.144134308E1	2.189806938E0	-1.877781868E0	3.728200674E0	4.713894296E0
1.145967116E1	6.424104571E-1	-3.127881050E0	9.945163727E-1	3.344457187E0
1.147802485E1	-2.197396159E-1	-3.748281479E0	-1.156683326E0	3.928844087E0
1.149636569E1	-2.697447836E-1	-3.570534229E0	-1.759305239E0	3.989565372E0
1.151470662E1	-2.371156812E-1	-2.884686470E0	-1.556046247E0	3.286170994E0
1.153304751E1	-1.347596049E-1	-2.314258575E0	-9.823204279E-1	2.517718477E0
1.155138840E1	-5.363598466E-2	-2.342979431E0	-6.389800310E-1	2.429140777E0
1.156972928E1	-6.155371666E-3	-2.627530098E0	-1.115249515E0	2.854423547E0
1.158807011E1	-7.883889228E-2	-3.010532379E0	-1.718370318E0	3.467321348E0
1.160641100E1	-8.655080199E-1	-3.413968086E0	-2.007314682E0	4.053837004E0
1.162475188E1	-1.413853884E0	-2.839263439E0	-2.000050783E0	3.749747034E0
1.164309277E1	-1.191929340E0	-1.236947060E0	-1.771056533E0	2.467260591E0
1.166143360E1	-1.405648142E-1	3.550481796E-1	-7.718163729E-1	8.611145047E-1
1.167976173E1	1.016818643E0	1.607519150E0	1.016736031E-1	1.904829517E0
1.169811538E1	1.627927303E0	1.934429169E0	1.101026773E0	2.757611914E0
1.171645626E1	1.845422864E0	1.699234009E0	1.976156473E0	3.193458340E0
1.173479715E1	1.722478509E0	1.639743805E0	1.109162569E0	2.624106241E0
1.175313803E1	1.811455250E0	1.795336723E0	2.627487183E-1	2.563911262E0
1.177147892E1	2.185495615E0	2.221455574E0	8.778238297E-1	3.237565540E0
1.178981975E1	2.099497318E0	2.632412910E0	1.924931288E0	3.878510949E0
1.180816064E1	4.990340173E-1	2.845503807E0	9.804143906E-1	3.050760437E0
1.182650152E1	-1.555244088E0	2.641597748E0	-9.038226604E-1	3.195890836E0
1.184484241E1	-1.912406564E0	2.632501602E0	-5.795668364E-1	3.305035744E0
1.186318324E1	-3.532638550E-1	2.857194901E0	2.423630714E0	3.763288973E0
1.188152412E1	-6.476841867E-3	2.167754173E0	3.820612907E0	4.392753475E0
1.189985220E1	-1.044404387E0	2.429800034E-1	2.581236601E0	2.795103253E0
1.191820590E1	-1.947506785E0	-1.437126160E0	7.066729069E-1	2.521408510E0
1.193654673E1	-2.158033609E0	-2.441689491E0	-1.172997952E-1	3.260784549E0
1.195487485E1	-1.593088627E0	-2.641518593E0	3.943586349E-1	3.109834494E0
1.197322850E1	-1.117584184E-1	-3.270866871E0	9.816365242E-1	3.416821666E0
1.199156938E1	8.923512697E-1	-2.462975979E0	-8.067269325E-1	2.741049034E0
1.200989746E1	4.042723775E-1	-8.303909302E-1	-2.798051119E0	2.946536156E0
1.202825110E1	-9.374441206E-2	-1.484825134E0	-1.752901077E-1	1.498072200E0
1.204659194E1	2.253973186E-1	-1.977283001E0	2.948567629E0	3.557316837E0
1.206493282E1	2.308806181E-1	-2.491772652E0	3.155293941E0	4.027172291E0
1.208327371E1	-2.038622051E-1	-2.736353397E0	1.175564528E0	2.985153543E0
1.210161459E1	-8.145024776E-1	-2.442137241E0	-8.549467325E-1	2.712633869E0
1.211994267E1	-1.157041550E0	-1.809511185E0	-1.376645207E0	2.551122871E0
1.213829631E1	-1.188574314E0	-8.867673874E-1	-8.572288752E-1	1.712865040E0
1.215663720E1	-1.295625567E0	-3.757696152E-1	-2.983721495E-1	1.381620192E0
1.217497803E1	-1.494580269E0	-2.570409775E-1	-1.439371109E-1	1.523337827E0
1.219331892E1	-1.752462864E0	-1.609220505E-1	-7.569217682E-2	1.761462830E0
1.221165975E1	-1.434773564E0	5.399475098E-1	2.343035936E-1	1.550811616E0
1.222998788E1	-8.099974990E-1	1.834356308E0	6.877650023E-1	2.119900873E0
1.224834152E1	5.668267608E-1	3.548002243E0	1.845772386E0	4.039367301E0
1.226668235E1	1.808566809E0	4.030858040E0	3.413362980E0	5.582989994E0
1.228501048E1	2.341941833E0	3.208204269E0	4.253821850E0	5.819988532E0
1.230336413E1	9.505868554E-1	1.841804504E0	2.227771282E0	3.042831590E0
1.232170496E1	-9.172524810E-1	7.143115997E-1	-1.056617498E0	1.570997681E0
1.234004584E1	-7.849174142E-1	1.150836945E0	-1.290761590E0	1.899101499E0
1.235838668E1	4.146643281E-1	2.147005081E0	3.678991795E-1	2.217414515E0
1.237672756E1	1.082501411E-1	1.694813728E0	4.510250092E-1	1.757138363E0
1.239506840E1	-9.423333406E-2	7.850379944E-1	5.227866173E-1	9.478767964E-1
1.241340928E1	1.156602144E0	4.188604355E-1	2.069628000E0	2.407598938E0
1.243175011E1	2.849696636E0	2.049436569E-1	3.112948656E0	4.225307345E0
1.245007824E1	3.027450800E0	-6.410217285E-1	2.253011227E0	3.827848846E0
1.246843189E1	1.964515567E0	-2.159438133E0	6.864519119E-1	2.998951599E0
1.248677272E1	1.092447758E0	-2.821222305E0	-3.088347912E-1	3.041071576E0
1.250511360E1	5.437056422E-1	-2.818679333E0	-8.067700863E-1	2.981852944E0
1.252345444E1	2.747955918E-1	-2.945543289E0	-4.121437073E-1	2.986904806E0
1.254179527E1	9.548705816E-2	-3.014490604E0	-1.846477985E-1	3.021649581E0
1.256013616E1	-5.434936285E-2	-3.184309006E0	-6.093714237E-1	3.242547028E0
1.257847699E1	-3.417030871E-1	-3.024175167E0	-1.274034381E0	3.299327211E0
1.259681788E1	-8.351668715E-2	-2.309644699E0	-1.491526723E0	2.750651857E0
1.261514595E1	2.785113156E-1	-1.071413994E0	-1.679813385E0	2.011782669E0
1.263349959E1	4.340018630E-1	1.218357086E-1	-1.485039115E0	1.551948044E0
1.265184048E1	3.110802174E-1	8.882131577E-1	-1.695022941E0	1.938761534E0
1.267018131E1	-1.030446291E-1	1.114946365E0	-2.129900932E0	2.406283769E0
1.268852215E1	2.610426843E-1	6.730241776E-1	-1.210600972E0	1.409489106E0
1.270686303E1	1.570694327E0	4.123764038E-1	6.437091827E-1	1.746853308E0
1.272519105E1	2.124509096E0	8.334455490E-1	2.200399876E0	3.170162456E0
1.274354475E1	1.554034591E0	1.115574837E0	1.978055477E0	2.751769285E0
1.276188558E1	8.197536469E-1	1.489966393E0	1.225239992E0	2.095998314E0
1.278022642E1	1.507222891E0	1.851611137E0	1.623281479E0	2.887079390E0
1.279856725E1	2.027229548E0	2.182114601E0	2.751289129E0	4.054734966E0
1.281690814E1	1.021626234E0	1.792142868E0	2.269317865E0	3.066806123E0
1.283523621E1	-9.486961365E-1	1.155895233E0	-1.362347603E-1	1.501558543E0
1.285358980E1	-1.655898213E0	1.016827583E0	-1.499176979E0	2.454275625E0
1.287193069E1	1.593857408E-1	1.384000778E0	1.535445213E0	2.073271321E0
1.289025876E1	1.881448746E0	1.358346939E0	4.678649902E0	5.222520531E0
1.290861235E1	1.038354874E0	5.126514435E-1	3.451660633E0	3.640735293E0
1.292695324E1	-6.480522752E-1	-9.715681076E-1	5.540163517E-1	1.292613808E0
1.294528131E1	-1.363289952E0	-1.634111881E0	-9.277560711E-1	2.321553890E0
1.296363491E1	-8.912239671E-1	-1.709798336E0	-6.405797005E-1	2.031756103E0
1.298197574E1	-2.510598302E-1	-1.572742462E0	-8.179783821E-2	1.594754143E0
1.300031662E1	1.984165907E-1	-1.758422852E0	2.795622349E-1	1.791528708E0
1.301865746E1	3.226512671E-1	-2.102635384E0	3.810453415E-1	2.161105030E0
1.303699829E1	1.057289839E-1	-2.759930134E0	5.148789883E-1	2.809536142E0
1.305533913E1	-6.397381425E-2	-3.180304527E0	6.227059364E-1	3.241325688E0
1.307368001E1	-1.000756919E-1	-2.910630703E0	4.281661510E-1	2.943656312E0
1.309202084E1	-4.599913955E-2	-2.488646507E0	3.477978706E-1	2.513253015E0
1.311036168E1	6.491866708E-2	-2.150439262E0	4.554021358E-1	2.199089484E0
1.312870251E1	-6.064578891E-2	-1.871273994E0	-9.942054749E-3	1.872282863E0
1.314704334E1	-3.806391358E-1	-1.718413353E0	-8.239269257E-1	1.943369801E0
1.316538423E1	-4.400857389E-1	-1.424482822E0	-1.334267855E0	2.000774219E0
1.318372506E1	-3.219844997E-1	-7.364149094E-1	-1.811845064E0	1.982110863E0
1.320206590E1	1.869131327E-1	6.171188354E-1	-9.015761614E-1	1.108427603E0
1.322039397E1	6.395838857E-1	2.161241531E0	1.067277908E0	2.493815277E0
1.323874756E1	3.629685044E-1	3.455343246E0	1.346513987E0	3.726156599E0
1.325708840E1	3.134104609E-1	4.070589066E0	3.626163006E-1	4.098708582E0
1.327541647E1	1.279542923E0	4.102351189E0	1.556441069E0	4.570451199E0
1.329377006E1	1.960456371E0	3.117956161E0	4.216082096E0	5.598248659E0
1.331211090E1	8.986667395E-1	2.078882217E0	3.703145027E0	4.340810555E0
1.333043897E1	-6.143599749E-2	1.447615623E0	8.043963909E-1	1.657232310E0
1.334879261E1	-5.808770657E-3	2.885769844E0	-6.857753992E-1	2.966140461E0
1.336713345E1	4.915838242E-1	2.771837234E0	1.973250389E0	3.437797756E0
1.338546147E1	4.103105962E-1	-1.156015396E-1	3.720750093E0	3.745090087E0
1.340381511E1	3.705990314E-2	-1.651500702E0	1.041244745E0	1.952695221E0
1.342215595E1	-9.841689467E-2	-8.230333328E-1	-1.691529751E0	1.883704502E0
1.344048402E1	4.256023467E-1	-1.645907402E0	-1.274663091E0	2.124832824E0
1.345883761E1	1.573231697E0	-2.104056358E0	8.753290176E-1	2.769171721E0
1.347717845E1	1.929245234E0	-1.119213104E0	1.123358727E0	2.497310548E0
1.349551928E1	1.881706715E0	-2.426166534E-1	3.702552319E-1	1.933073185E0
1.351386011E1	1.496902227E0	-4.180498123E-1	-4.757839441E-1	1.625377582E0
1.353220095E1	7.475401163E-1	-1.432836533E0	-9.239897728E-1	1.861610554E0
1.355052897E1	2.485679388E-1	-2.598874569E0	-6.795612574E-1	2.697728405E0
1.356888261E1	-2.274727523E-1	-3.644745350E0	-6.910272837E-1	3.716642467E0
1.358722340E1	-3.975626826E-1	-3.988203526E0	-1.008205056E0	4.132832066E0
1.360555147E1	-6.011121273E-1	-3.330939770E0	-2.001257181E0	3.932114678E0
1.362390506E1	-8.499649167E-1	-2.474548340E0	-2.810668468E0	3.840011339E0
1.364224595E1	-7.651243210E-1	-1.788285255E0	-2.507149220E0	3.173196589E0
1.366057397E1	-1.073980331E-1	-1.551470757E0	-1.636406541E0	2.257525684E0
1.367892761E1	3.643257618E-1	-5.780181885E-1	-1.184212208E0	1.367185737E0
1.369726840E1	7.960223556E-1	4.206209183E-1	-4.400727749E-1	1.002116557E0
1.371560923E1	7.222999334E-1	1.037180901E0	2.801123857E-1	1.294574974E0
1.373395006E1	7.540747523E-1	1.227337837E0	-5.246829987E-2	1.441436721E0
1.375229090E1	1.312552810E0	1.913250923E0	1.983468533E-1	2.328661729E0
1.377061892E1	2.225398540E0	2.608413696E0	1.215708852E0	3.637879697E0
1.378897251E1	2.653069973E0	3.551945686E0	1.760201097E0	4.770053075E0
1.380731334E1	1.930893421E0	3.405398369E0	1.826801062E0	4.319987219E0
1.382564136E1	-2.906112075E-1	2.949827194E0	-2.676831484E-1	2.976170294E0
1.384399496E1	-1.814905643E0	2.885548592E0	-2.105802536E0	4.006828857E0
1.386233579E1	-8.369796276E-1	3.011246681E0	3.562362194E-1	3.145639159E0
1.388066381E1	1.218967438E0	3.148063660E0	4.294900894E0	5.462816134E0
1.389901741E1	1.340735674E0	3.205673218E0	4.388603687E0	5.597656228E0
1.391735824E1	-3.927794099E-1	1.890892029E0	1.353792191E0	2.358495627E0
1.393568626E1	-1.392636061E0	-7.560062408E-1	1.226695657E0	2.003936842E0
1.395403985E1	-1.072481394E0	-1.981196404E0	2.223378181E0	3.165243445E0
1.397238069E1	1.162034273E-2	-1.536096573E0	1.787173271E0	2.356632346E0
1.399070876E1	3.958031535E-2	-7.441120148E-1	-1.320316792E-1	7.567705439E-1
1.400906235E1	-4.549597502E-1	-1.932843208E0	-1.368808746E-1	1.990378762E0
1.402740314E1	-7.082738876E-1	-3.080538750E0	-7.260847092E-2	3.161746808E0
1.404573116E1	-5.130202770E-1	-3.865011215E0	3.133049011E-1	3.911478168E0
1.406408475E1	-5.505059361E-1	-4.369953632E0	2.961421013E-2	4.404591756E0
1.408242558E1	-6.015573144E-1	-4.397650242E0	-3.051050901E-1	4.449077204E0
1.410076636E1	-5.770016313E-1	-3.684978485E0	-1.104763865E0	3.890051480E0
1.411910720E1	-4.398446679E-1	-2.766033649E0	-1.849160314E0	3.356158421E0
1.413744803E1	-8.094245195E-2	-2.121852398E0	-1.874421954E0	2.832360666E0
1.415577605E1	-1.697046757E-1	-1.403659821E0	-2.203141451E0	2.617803052E0
1.417412959E1	-4.821710289E-1	-2.667388916E-1	-2.040684223E0	2.113771661E0
1.419247043E1	-5.267267227E-1	1.163425446E0	-1.497052193E0	1.967781765E0
1.421079845E1	-3.767865002E-1	2.083598137E0	-1.728165150E-1	2.124432821E0
1.422915204E1	-4.860482812E-1	2.459850311E0	5.190076828E-1	2.560561552E0
1.424749288E1	-5.195152760E-1	2.894944191E0	5.371693373E-1	2.989840947E0
1.426583366E1	2.439606190E-2	3.372217178E0	1.259879947E0	3.599964076E0
1.428417449E1	1.462208629E0	3.785252571E0	2.817025423E0	4.939820172E0
1.430251527E1	2.011962652E0	3.680776596E0	2.894836903E0	5.096684290E0
1.432084324E1	8.912374973E-1	2.583210945E0	4.243406057E-1	2.765383882E0
1.433919689E1	4.238955975E-1	1.729174614E0	-5.024794340E-1	1.849923756E0
1.435753767E1	9.354789853E-1	1.463722229E0	4.104862213E-1	1.784965723E0
1.437586569E1	1.409387589E0	6.988945007E-1	1.339500070E0	2.066176985E0
1.439421923E1	1.050963879E0	-1.922616959E-1	1.217327595E0	1.619683953E0
1.441256006E1	6.853055358E-1	-7.137298584E-1	4.411275387E-1	1.083350125E0
1.443088808E1	8.863852024E-1	-1.355453491E0	5.780662298E-1	1.719620150E0
1.444924168E1	1.529992580E0	-2.137236595E0	7.162971497E-1	2.724286910E0
1.446758246E1	2.004259586E0	-1.582491875E0	2.266672850E-1	2.563730696E0
1.448592324E1	1.963350534E0	-1.393207550E0	2.327636480E-1	2.418667301E0
1.450426402E1	1.738425255E0	-1.494651794E0	6.031956673E-1	2.370643661E0
1.452260480E1	1.167693973E0	-1.832042217E0	2.032976151E-1	2.182021498E0
1.454094564E1	7.571095228E-1	-2.274749756E0	-5.330537558E-1	2.455982001E0
1.455928642E1	2.161686420E-1	-2.287769318E0	-1.687816501E0	2.851200076E0
1.457762720E1	-9.076482058E-2	-2.582383156E0	-1.451913238E0	2.963948897E0
1.459596798E1	-9.695136547E-2	-2.340666294E0	-7.900298834E-1	2.472299635E0
1.461430876E1	8.877766132E-2	-2.163356781E0	-4.201221466E-1	2.205560394E0
1.463264959E1	3.014675975E-1	-1.741160870E0	-1.140603542E0	2.103211907E0
1.465099038E1	6.207434535E-1	-7.655487061E-1	-2.406425238E0	2.600436440E0
1.466933116E1	8.690449595E-1	-6.272602081E-2	-1.852587938E0	2.047255667E0
1.468767194E1	1.401031256E0	3.581485748E-1	7.581377029E-2	1.448069994E0
1.470601272E1	1.623587012E0	4.419536591E-1	9.940534830E-1	1.954354152E0
1.472435350E1	1.122629285E0	3.874158859E-1	1.084702730E0	1.608405295E0
1.474269428E1	3.878832459E-1	-6.580352783E-5	1.253654242E0	1.312288983E0
1.476102235E1	2.792966962E-1	1.121873856E-1	2.333034039E0	2.352369120E0
1.477937590E1	9.811127186E-1	5.168762207E-1	3.625594616E0	3.791395457E0
1.479771668E1	1.431570530E0	1.535211563E0	3.973667145E0	4.494029295E0
1.481604465E1	-1.395720392E-1	1.687703133E0	1.994041920E0	2.616108827E0
1.483439824E1	-2.027490854E0	1.420106888E0	-1.128318071E0	2.720390488E0
1.485273902E1	-1.841616631E0	1.872046471E0	-7.982056141E-1	2.744675209E0
1.487106704E1	5.282198191E-1	2.786290169E0	3.126438618E0	4.221024462E0
1.488942058E1	1.512631297E0	2.577111244E0	5.007030487E0	5.830944186E0
1.490776136E1	1.950437129E-1	1.052545547E0	2.768348455E0	2.968105010E0
1.492608933E1	-1.269884706E0	-5.015735626E-1	-4.775770903E-1	1.446465721E0
1.494444293E1	-1.469106317E0	-1.228751183E0	-1.553102732E0	2.465812429E0
1.496278371E1	-6.610027552E-1	-1.588646889E0	-2.055945396E-1	1.732914509E0
1.498112449E1	2.839078903E-1	-1.343503952E0	1.101823568E0	1.760574263E0
1.499946522E1	5.414039493E-1	-1.267132759E0	7.446236610E-1	1.566272027E0
1.501780600E1	3.874187469E-1	-1.698629379E0	1.369409561E-1	1.747623495E0
1.503614678E1	2.582949400E-1	-2.181024075E0	1.691460609E-2	2.196330666E0
1.505448756E1	1.704112291E-1	-2.312623978E0	-1.990392208E-1	2.327420516E0
1.507282834E1	4.222899675E-2	-2.558258057E0	-4.583582878E-1	2.599338357E0
1.509116912E1	1.142849922E-1	-2.132342815E0	-1.046163082E0	2.377899101E0
1.510950991E1	5.895847082E-2	-1.627820969E0	-1.583108783E0	2.271455618E0
1.512785069E1	-4.085796177E-1	-1.300770760E0	-1.868709683E0	2.313226697E0
1.514619147E1	-3.439354002E-1	-8.547134399E-1	-1.502062917E0	1.762106589E0
1.516453220E1	1.539155841E-1	2.978105545E-1	-1.025589585E0	1.078988012E0
1.518287298E1	4.914382696E-1	1.540510178E0	-5.867545605E-1	1.720163973E0
1.520120100E1	3.505008817E-1	2.187346458E0	-6.294584274E-2	2.216144755E0
1.521955454E1	-2.113721371E-1	2.413303375E0	6.074726582E-1	2.497545674E0
1.523789532E1	-2.647853196E-1	2.499486923E0	1.035140276E0	2.718282828E0
1.525623610E1	1.440131664E-1	3.143132210E0	8.785297871E-1	3.266777383E0
1.527457683E1	9.735448956E-1	3.323428154E0	2.328422546E0	4.173070322E0
1.529291761E1	1.313552141E0	2.065497398E0	3.883428335E0	4.590502627E0
1.531124558E1	-1.898429841E-1	9.571828842E-1	1.368796349E0	1.681024353E0
1.532959918E1	-1.448592663E0	1.653738976E0	-8.355371952E-1	2.351891942E0
1.534793991E1	-2.770509720E-1	2.435439110E0	1.694973946E0	2.980110329E0
1.536626793E1	1.077010512E0	1.884301186E0	4.879163742E0	5.340110619E0
1.538462147E1	4.598451257E-1	3.515472412E-1	3.695928812E0	3.740980191E0
1.540296220E1	-1.488692313E-1	-7.172222137E-1	1.347963333E0	1.534136532E0
1.542130303E1	5.385965705E-1	-9.956865311E-1	1.285682678E0	1.713025943E0
1.543964376E1	1.429668903E0	-1.086740494E0	1.565070391E0	2.382100628E0
1.545798454E1	1.585513115E0	-1.222440720E0	5.399820805E-1	2.073594415E0
1.547631251E1	1.635035753E0	-1.342643738E0	-6.452140808E-1	2.211862412E0
1.549466605E1	1.614439487E0	-1.478328705E0	-1.259285688E0	2.525405129E0
1.551300678E1	1.362680435E0	-2.037862778E0	-1.488809586E0	2.868159105E0
1.553134756E1	1.006135583E0	-2.927855968E0	-1.364563942E0	3.383294864E0
1.554968834E1	5.385882258E-1	-3.288505554E0	-1.509960175E0	3.658459483E0
1.556802912E1	5.088410378E-1	-3.429722309E0	-1.626150846E0	3.829658065E0
1.558636985E1	4.079367220E-1	-3.221316814E0	-1.484982848E0	3.570499748E0
1.560471064E1	3.643502891E-1	-2.924951077E0	-1.230958462E0	3.194268096E0
1.562305136E1	-1.516714692E-2	-2.620156288E0	-1.722938895E0	3.135915728E0
1.564137938E1	-4.310154915E-1	-2.305920601E0	-2.658674002E0	3.545644034E0
1.565973288E1	-7.739449143E-1	-1.690635204E0	-3.666821718E0	4.111303885E0
1.567807366E1	-6.189550757E-1	-5.880670547E-1	-3.052393675E0	3.169548137E0
1.569640163E1	2.106410265E-1	1.135574341E0	-1.628727794E0	1.996660450E0
1.571475517E1	1.199315071E0	2.767525673E0	2.399494648E-1	3.025744658E0
1.573309590E1	1.465902448E0	3.221244812E0	1.339973211E0	3.784285445E0
1.575142386E1	1.218779802E0	2.843775749E0	1.545991898E0	3.458695660E0
1.576977741E1	1.563962698E0	3.003071785E0	1.773583889E0	3.822305492E0
1.578811819E1	2.400467157E0	3.697546959E0	1.867076874E0	4.787491216E0
1.580645892E1	2.265970707E0	3.913154602E0	1.430221081E0	4.742671665E0
1.582479965E1	2.601098418E-1	3.886733055E0	-1.815820098E0	4.297854534E0
1.584314043E1	-1.628859043E0	2.907770157E0	-2.556059599E0	4.200208297E0
1.586146840E1	-1.326402426E-1	4.027198792E0	1.103682995E0	4.177803214E0
1.587982194E1	1.980989456E0	4.147185326E0	5.551100731E0	7.206815155E0
1.589816267E1	1.395784855E0	2.361869812E0	5.664967537E0	6.294322963E0
1.591649064E1	-9.555996656E-1	-3.209609985E-1	2.774195671E0	2.951668732E0
1.593484418E1	-2.519587040E0	-2.387984753E0	8.571138382E-1	3.575672547E0
1.595318491E1	-2.152932644E0	-3.103029251E0	5.487680435E-1	3.816419247E0
1.597152569E1	-1.065264940E0	-2.967170715E0	2.779285908E-1	3.164827918E0
1.598986642E1	-4.041617811E-1	-2.718605518E0	-3.556087017E-1	2.771393198E0
1.600820715E1	-1.392251253E-1	-2.980366707E0	-6.631588936E-1	3.056427500E0
1.602654793E1	5.221724510E-3	-3.029829025E0	-6.142382622E-1	3.091468879E0
1.604488866E1	1.185910106E-1	-3.263541222E0	-7.030006647E-1	3.340505211E0
1.606322938E1	1.195917130E-1	-3.223265648E0	-5.177336931E-1	3.266770851E0
1.608157017E1	1.663327813E-1	-2.959728241E0	2.390809059E-1	2.974023795E0
1.609991090E1	2.308484912E-1	-2.639938354E0	2.321414948E-1	2.660160750E0
1.611825163E1	-7.371187210E-3	-2.148111820E0	-7.716639042E-1	2.282521393E0
1.613659241E1	-3.545480669E-1	-1.871520996E0	-1.616577506E0	2.498323038E0
1.615493308E1	-2.345477343E-1	-9.720811844E-1	-1.687645912E0	1.961658276E0
1.617327386E1	1.367151737E-3	2.113351822E-1	-1.259945393E0	1.277547189E0
1.619160183E1	1.569715142E-1	1.195585251E0	-4.619847536E-1	1.291314857E0
1.620995532E1	2.695054412E-1	1.797472954E0	3.568809032E-1	1.852270548E0
1.622829605E1	6.459766626E-2	2.072752953E0	6.520540714E-1	2.173856521E0
1.624662407E1	3.521153331E-1	2.766201973E0	1.268177032E0	3.063352991E0
1.626497756E1	1.209265471E0	3.464074135E0	2.745208025E0	4.582390172E0
1.628331829E1	1.703797221E0	3.206026077E0	3.378850222E0	4.959652911E0
1.630165902E1	6.206381917E-1	2.692459106E0	2.055257082E0	3.443633180E0
1.631999975E1	-1.262513638E0	2.536044121E0	-3.033214808E-1	2.849116422E0
1.633834048E1	-2.209602356E0	2.961198807E0	-8.678063154E-1	3.795277163E0
1.635666845E1	-3.466206789E-1	3.798306465E0	2.156519175E0	4.381535444E0
1.637502194E1	1.473155737E0	3.658217430E0	5.120394230E0	6.463062715E0
1.639336267E1	1.330832601E0	1.320532799E0	4.656274319E0	5.019543088E0
1.641169064E1	5.716733932E-1	-9.823684692E-1	2.436695337E0	2.688743655E0
1.643004413E1	6.585581899E-1	-1.939478874E0	7.836453915E-1	2.193029250E0
1.644838485E1	1.321191072E0	-2.331096649E0	-3.164690733E-1	2.698093792E0
1.646671282E1	1.521702290E0	-2.919441223E0	-1.631445885E0	3.674279601E0
1.648506636E1	1.127370238E0	-3.875775814E0	-3.080023766E0	5.077317029E0
1.650340704E1	8.074650168E-1	-4.402099609E0	-3.396920204E0	5.618678457E0
1.652174777E1	1.344297051E0	-4.156785488E0	-1.733037829E0	4.699938327E0
1.654008850E1	1.840629816E0	-3.301265717E0	-1.653859615E-1	3.783335297E0
1.655842923E1	1.545530558E0	-2.827938080E0	2.732179165E-1	3.234276815E0
1.657677001E1	6.813259125E-1	-3.036233425E0	-2.699341774E-1	3.123424862E0
1.659511069E1	-1.557622552E-1	-3.601528645E0	-1.194644809E0	3.797689650E0
1.661345142E1	-4.319880903E-1	-3.291460514E0	-1.912571907E0	3.831221388E0
1.663177938E1	-2.341879904E-1	-1.988100052E0	-1.700639486E0	2.626701447E0
1.665013288E1	-8.619102836E-2	-7.080078125E-1	-1.930085778E0	2.057652805E0
1.666847360E1	1.720421910E-1	4.889888763E-1	-1.887614489E0	1.957497661E0
1.668680152E1	1.073448896E0	1.625021935E0	-5.018122196E-1	2.011169890E0
1.670515506E1	2.059656143E0	2.315388680E0	7.631716728E-1	3.191494817E0
1.672349574E1	1.932054043E0	2.677800179E0	5.424571037E-2	3.302482281E0
1.674183647E1	1.147011876E0	2.310989380E0	-8.202252388E-1	2.707226921E0
1.676017720E1	7.754223347E-1	2.222516060E0	-2.955731153E-1	2.372387173E0
1.677851793E1	1.109133601E0	2.424182892E0	1.387418628E0	3.005290416E0
1.679684584E1	1.616963506E0	2.955366135E0	2.915673256E0	4.455323838E0
1.681519933E1	6.392729282E-1	3.219894409E0	2.465169907E0	4.105295672E0
1.683354006E1	-1.534166098E0	2.535600662E0	6.892824173E-1	3.042703828E0
1.685188079E1	-2.294630289E0	2.611051559E0	9.561872482E-2	3.477364138E0
1.687022147E1	-1.082923174E0	2.896760941E0	2.048748970E0	3.709625168E0
1.688856220E1	7.351726294E-1	3.247069359E0	4.311614513E0	5.447380832E0
1.690690293E1	1.016423225E0	2.716199875E0	4.474329948E0	5.332024608E0
1.692524366E1	-4.318310618E-1	5.388317108E-1	2.046472073E0	2.159829999E0
1.694358433E1	-1.816062927E0	-1.903655052E0	-5.930761695E-1	2.696984697E0
1.696191230E1	-2.123067379E0	-3.308396339E0	-1.731244445E0	4.295358979E0
1.698026579E1	-1.206743956E0	-3.796578407E0	-1.049303293E0	4.119620854E0
1.699860647E1	-2.852448225E-1	-3.685493946E0	-7.721333504E-1	3.776297147E0
1.701694720E1	-3.489398956E-2	-3.355943203E0	-1.228506565E0	3.573905532E0
1.703528793E1	-4.850369692E-2	-3.307201862E0	-5.234280825E-1	3.348718221E0
1.705362860E1	1.217802763E-1	-3.074319363E0	5.877475739E-1	3.132366069E0
1.707196933E1	3.845900893E-1	-2.394051552E0	9.606683254E-1	2.608117329E0
1.709031006E1	5.092226267E-1	-1.630170822E0	6.120316982E-1	1.814207097E0
1.710865074E1	7.741999626E-2	-1.389703751E0	-1.501922607E-1	1.399938601E0
1.712699147E1	-6.857357025E-1	-1.732907772E0	-1.080053091E0	2.154000343E0
1.714533215E1	-1.067226887E0	-1.798109531E0	-1.845354795E0	2.788817928E0
1.716367288E1	-8.092797995E-1	-1.474261284E0	-1.649181724E0	2.355457596E0
1.718201360E1	-5.675638318E-1	-6.537008286E-1	-1.318963051E0	1.577693572E0
1.720035428E1	-5.541684628E-1	7.375659943E-1	-1.159625173E0	1.481835626E0
1.721869501E1	-4.346823394E-1	2.322907448E0	-5.226320028E-1	2.420328895E0
1.723702293E1	-5.091577768E-1	3.221998215E0	3.298968077E-1	3.278619533E0
1.725537642E1	-2.134704590E-1	3.087945938E0	9.080955982E-1	3.225773918E0
1.727371709E1	8.162453175E-1	3.574051857E0	3.219496012E-1	3.680184050E0
1.729204501E1	2.433410883E0	3.725450516E0	1.692857623E0	4.760907162E0
1.731039850E1	1.304017782E0	2.867621422E0	2.528196335E0	4.039243952E0
1.732873923E1	-1.235128164E0	7.317590714E-1	1.316087365E0	1.947587963E0
1.734707991E1	-1.855235457E0	1.191549301E-1	5.970041752E-1	1.952565104E0
1.736542064E1	-4.292259812E-1	1.899483681E0	8.385918140E-1	2.120261641E0
1.738376136E1	8.406580687E-1	2.581195831E0	2.269615889E0	3.538422557E0
1.740210199E1	1.025096893E0	2.237738609E0	2.457461119E0	3.478133533E0
1.742044272E1	1.084970951E0	1.305211067E0	1.900122166E0	2.547783770E0
1.743878340E1	1.521551132E0	4.449653625E-1	2.138826847E0	2.662272019E0
1.745711131E1	1.757297516E0	-3.442125320E-1	2.286602974E0	2.904329525E0
1.747546485E1	1.410538912E0	-1.334447861E0	1.755629659E0	2.617748386E0
1.749380553E1	8.366646767E-1	-2.399211884E0	8.928213120E-1	2.693205402E0
1.751213345E1	3.158587813E-1	-3.364788055E0	-9.929466248E-2	3.381039020E0
1.753048689E1	1.173257828E-3	-3.737615585E0	-8.814754486E-1	3.840152420E0
1.754882761E1	-1.291516721E-1	-3.441342831E0	-1.442143202E0	3.733536882E0
1.756716829E1	-2.518077493E-1	-3.095852852E0	-1.487688780E0	3.443970082E0
1.758550897E1	-7.341315746E-1	-3.146151066E0	-1.100830317E0	3.413069452E0
1.760384970E1	-9.540311098E-1	-3.320741177E0	-1.019884467E0	3.602452171E0
1.762219038E1	-9.134305120E-1	-2.989702225E0	-1.219150901E0	3.355443877E0
1.764053105E1	-3.088268936E-1	-1.354945183E0	-1.404831171E0	1.976056962E0
1.765887173E1	-2.850147486E-1	-6.255111694E-1	-1.626070261E0	1.765390077E0
1.767719965E1	-2.750452757E-1	1.837396622E-1	-1.146904111E0	1.193649533E0
1.769555314E1	-1.943490207E-1	5.435123444E-1	-8.164098263E-1	9.998510963E-1
1.771389381E1	1.145830750E-1	1.684213638E0	-6.975508928E-1	1.826549235E0
1.773222173E1	7.026525736E-1	2.684412003E0	-4.954981804E-2	2.775291628E0
1.775057522E1	1.097824574E0	2.835031509E0	6.913027763E-1	3.117775165E0
1.776891590E1	1.191392064E0	2.456869125E0	8.678495884E-1	2.865097530E0
1.778725657E1	1.590685368E0	2.288680077E0	8.972802162E-1	2.928045119E0
1.780559725E1	1.899011135E0	2.772043228E0	1.117638350E0	3.541127282E0
1.782393793E1	7.943009734E-1	2.763754845E0	3.997795582E-1	2.903287546E0
1.784226584E1	-1.730838537E0	2.401234627E0	-1.717507243E0	3.422215789E0
1.786061933E1	-2.561303854E0	2.258084297E0	-1.634572387E0	3.785637200E0
1.787896001E1	-5.282404423E-1	2.577200890E0	2.034460783E0	3.325662801E0
1.789728793E1	1.175233722E0	3.123083115E0	4.773353100E0	5.824064067E0
1.791564136E1	7.092113495E-1	1.868326187E0	4.043326378E0	4.510223019E0
1.793398204E1	-1.025166273E0	-3.143787384E-1	1.344792128E0	1.719960972E0
1.795230996E1	-1.765465975E0	-1.998705864E0	-2.094738483E-1	2.674990567E0
1.797066345E1	-1.357508659E0	-2.781307220E0	-4.772744179E-1	3.131499718E0
1.798900412E1	-7.397544980E-1	-2.998588085E0	-7.974232435E-1	3.189772884E0
1.800734480E1	-4.079351723E-1	-3.115161896E0	-1.181174040E0	3.356458975E0
1.802568548E1	-5.264110565E-1	-3.517776489E0	-1.516596556E0	3.866771928E0
1.804402616E1	-6.184943914E-1	-3.665768623E0	-1.587591171E0	4.042380566E0
1.806236683E1	-4.901257753E-1	-3.566863060E0	-9.901121855E-1	3.734040373E0
1.808070751E1	-2.609412670E-1	-3.120268822E0	2.392437458E-1	3.140287476E0
1.809904819E1	-3.348477185E-1	-2.390552521E0	5.425028801E-1	2.474100589E0
1.811738886E1	-6.201338172E-1	-1.729685783E0	5.540814400E-1	1.919214710E0
1.813572949E1	-7.490684390E-1	-9.502744675E-1	5.379536152E-1	1.324205113E0
1.815407017E1	-2.446123660E-1	2.689743042E-1	7.105193138E-1	7.981353777E-1
1.817239808E1	7.905143499E-2	1.389747620E0	6.174552441E-1	1.522793011E0
1.819075152E1	-1.175811291E-1	1.638747215E0	3.080887794E-1	1.671596977E0
1.820909220E1	-4.436204731E-1	2.321844101E0	-1.167829037E-1	2.366727149E0
1.822743288E1	-5.534424186E-1	2.630190849E0	4.198153019E-1	2.720376316E0
1.824577355E1	-6.228742599E-1	2.054500580E0	6.524267197E-1	2.243792682E0
1.826411423E1	-3.236773610E-2	2.125200272E0	6.062285900E-1	2.210211974E0
1.828245491E1	1.230434179E0	2.843540192E0	1.422386408E0	3.409233372E0
1.830079553E1	6.854310036E-1	3.014379501E0	1.072978258E0	3.272244151E0
1.831913626E1	-3.757151365E-1	2.239244461E0	-4.653177261E-1	2.317735577E0
1.833746412E1	4.432616830E-1	2.590833664E0	7.402658463E-1	2.730731315E0
1.835581756E1	1.723502517E0	2.828425407E0	3.259518385E0	4.647032528E0
1.837415819E1	1.124891520E0	1.285880089E0	3.232826233E0	3.656505707E0
1.839248610E1	-4.592947662E-2	-9.584035873E-1	1.995187759E0	2.213915344E0
1.841083954E1	2.142100036E-2	-2.384299278E0	2.177924156E0	3.229349089E0
1.842918022E1	8.035550714E-1	-2.158581734E0	2.082254648E0	3.104989577E0
1.844752090E1	1.358314157E0	-1.724460602E0	1.024309635E0	2.422393846E0
1.846586152E1	1.311410666E0	-1.802883148E0	-1.213800907E-1	2.232693151E0
1.848420220E1	9.681894779E-1	-2.323069096E0	-1.049363613E-1	2.518938770E0
1.850254288E1	6.837586761E-1	-2.825908661E0	-9.167814255E-2	2.908898515E0
1.852088350E1	3.325088024E-1	-3.134084702E0	-7.917640209E-1	3.249606020E0
1.853922418E1	4.792616889E-2	-3.153447151E0	-1.626499534E0	3.548524565E0
1.855756485E1	1.567357183E-1	-2.597259045E0	-1.840965509E0	3.187393079E0
1.857590548E1	5.331675410E-1	-1.768037796E0	-1.836415172E0	2.604351351E0
1.859424616E1	5.770793557E-1	-1.166800499E0	-2.212219238E0	2.566779684E0
1.861258678E1	4.692687988E-1	-9.141035080E-1	-2.303264380E0	2.522067650E0
1.863092746E1	3.118056357E-1	-7.539854050E-1	-1.841566801E0	2.014220700E0
1.864926808E1	2.524597049E-1	-7.376260757E-1	-1.061321259E0	1.316902025E0
1.866760876E1	1.622612327E-1	-3.212413788E-1	-5.721809864E-1	6.759554810E-1
1.868594944E1	-1.853025258E-1	-1.164007187E-1	-7.535166740E-1	7.846486675E-1
1.870429006E1	-4.406824112E-1	1.022911072E-1	-9.207931757E-1	1.025926182E0
1.872261793E1	1.215221882E-1	1.004305840E0	-3.526885509E-1	1.071348251E0
1.874097136E1	9.030975699E-1	2.341776848E0	3.638737202E-1	2.536120681E0
1.875931199E1	1.794337034E0	3.903370857E0	1.513900518E0	4.554980156E0
1.877763985E1	2.237175465E0	4.719646454E0	2.336385012E0	5.721775217E0
1.879599329E1	1.648099184E0	4.009302139E0	2.206585884E0	4.864129504E0
1.881433397E1	-5.813331604E-1	2.139156342E0	6.634628773E-1	2.313897380E0
1.883266183E1	-2.976783752E0	1.279678345E0	-1.998881102E0	3.807143789E0
1.885101527E1	-2.674541712E0	1.919345856E0	-1.403417945E0	3.578637144E0
1.886935590E1	-1.321784258E-1	2.715383530E0	2.511057615E0	3.700836283E0
1.888768376E1	7.184249163E-1	2.380212784E0	3.982621670E0	4.694978447E0
1.890603720E1	-7.312037945E-1	6.346769333E-1	1.942045212E0	2.170026130E0
1.892437782E1	-1.856373906E0	-9.493913651E-1	-8.464574814E-3	2.085075464E0
1.894270569E1	-1.483098269E0	-1.477503777E0	-2.121682167E-1	2.104189449E0
1.896105913E1	-4.689969420E-1	-1.142916679E0	7.962512970E-2	1.237964793E0
1.897939975E1	1.695780754E-1	-1.149555206E0	4.961652756E-1	1.263492729E0
1.899774038E1	1.536886543E-1	-1.601682186E0	5.287797451E-1	1.693698334E0
1.901608105E1	-1.473065317E-1	-2.462464809E0	3.848598003E-1	2.496707676E0
1.903442168E1	-3.617708683E-1	-3.360009193E0	1.165037155E-1	3.381436537E0
1.905276230E1	-3.918868303E-1	-3.854956150E0	1.459658146E-1	3.877572466E0
1.907110293E1	-1.758514196E-1	-3.745545864E0	3.364145756E-1	3.764732701E0
1.908944355E1	-6.246127188E-2	-3.205887794E0	3.635978699E-2	3.206702355E0
1.910777142E1	-3.472247124E-1	-2.777437687E0	-1.219894052E0	3.053336962E0
1.912612485E1	-5.577898622E-1	-2.152479172E0	-1.994195819E0	2.986823242E0
1.914446548E1	-3.549732566E-1	-1.024943352E0	-1.627661943E0	1.955964798E0
1.916279334E1	1.198754609E-1	7.460031509E-1	-7.600504160E-1	1.071712397E0
1.918114673E1	6.728284359E-1	2.300861359E0	-3.285408020E-2	2.397444574E0
1.919948741E1	3.841294050E-1	3.414786339E0	-6.633353233E-2	3.436963962E0
1.921781522E1	-1.659877151E-1	2.801218987E0	9.355010986E-1	2.957962481E0
1.923616866E1	-2.760586739E-1	2.231362343E0	1.431469440E0	2.665387599E0
1.925450928E1	1.606615782E-1	2.870225906E0	7.577807903E-1	2.972917863E0
1.927284996E1	1.093563557E0	3.148134232E0	1.238281131E0	3.555273625E0
1.929119058E1	5.180007219E-1	2.459664345E0	7.391867638E-1	2.620051623E0
1.930953116E1	-6.958602667E-1	2.018120766E0	-3.192700148E-1	2.158463870E0
1.932785902E1	7.091030478E-2	2.721374512E0	1.049888492E0	2.917734284E0
1.934621241E1	1.177125216E0	2.856876373E0	3.288288593E0	4.512228746E0
1.936455308E1	8.078749180E-1	1.220842361E0	3.063778162E0	3.395563956E0
1.938288090E1	9.190097451E-3	-6.151542664E-1	1.435030699E0	1.561349524E0
1.940123428E1	4.611694813E-1	-1.300451279E0	1.091451645E0	1.759294606E0
1.941957496E1	1.379743814E0	-1.352231979E0	9.389983416E-1	2.148008893E0
1.943791558E1	1.776024342E0	-1.161674500E0	4.623394012E-1	2.171982465E0
1.945625621E1	1.801431060E0	-1.106922150E0	2.788572311E-1	2.132649025E0
1.947459683E1	1.607126951E0	-1.756441593E0	2.895354033E-1	2.398285816E0
1.949292465E1	1.053333521E0	-2.598216057E0	-2.848165035E-1	2.818041629E0
1.951127808E1	3.866305053E-1	-3.668671608E0	-8.349846601E-1	3.782305368E0
1.952961871E1	-1.222564876E-1	-4.186322689E0	-9.563916922E-1	4.295920085E0
1.954795933E1	-1.311700046E-1	-4.350572586E0	-5.089616776E-1	4.382205995E0
1.956629996E1	-3.354869783E-2	-4.252334595E0	-5.676544905E-1	4.290187250E0
1.958464053E1	-2.306107283E-1	-3.735865593E0	-1.285452247E0	3.957557393E0
1.960298116E1	-1.732586622E-1	-2.939696312E0	-1.557782769E0	3.331444150E0
1.962132178E1	-1.242400259E-1	-1.798351288E0	-1.615441680E0	2.420569098E0
1.963966241E1	-3.661337495E-2	-6.387214661E-1	-1.627912402E0	1.749115331E0
1.965799027E1	1.995495260E-1	6.183137894E-1	-1.762168646E0	1.878129466E0
1.967634366E1	6.482432485E-1	1.803050041E0	-1.526416540E0	2.449725743E0
1.969468428E1	1.110491514E0	2.529761314E0	-8.270406723E-1	2.883900134E0
1.971302491E1	1.251735449E0	2.744982719E0	-5.095505714E-2	3.017344558E0
1.973136553E1	9.309071302E-1	2.537733078E0	1.507613659E-1	2.707287619E0
1.974970616E1	4.731082320E-1	2.018825531E0	2.368307114E-1	2.087001847E0
1.976804678E1	8.729127049E-1	2.021299362E0	6.565039158E-1	2.297525864E0
1.978638735E1	1.288778901E0	2.274701118E0	1.419200659E0	2.974785159E0
1.980472798E1	3.345753551E-1	2.516159058E0	1.053164721E0	2.748118083E0
1.982305584E1	-1.731787920E0	1.956432343E0	-6.240050793E-1	2.686279816E0
1.984140923E1	-2.276137590E0	1.632812500E0	-6.092802286E-1	2.866723110E0
1.985974985E1	-3.607859612E-1	2.305274963E0	2.711081505E0	3.576929143E0
1.987807767E1	1.559998035E0	3.106856346E0	5.347116947E0	6.377915794E0
1.989643105E1	9.838215113E-1	2.252583504E0	4.612607956E0	5.226680530E0
1.991477168E1	-8.329116106E-1	-7.242488861E-2	2.119626284E0	2.278552764E0
1.993309954E1	-1.701591492E0	-1.954626560E0	3.927228451E-1	2.621108511E0
1.995145293E1	-1.241886616E0	-2.617441177E0	1.381499767E-1	2.900407919E0
1.996979355E1	-4.103025496E-1	-2.462738991E0	2.572441101E-1	2.509901602E0
1.998813413E1	-2.050089240E-1	-2.369127274E0	-3.935651779E-1	2.410329074E0
2.000647475E1	-3.548915982E-1	-2.465661049E0	-7.430111170E-1	2.599518797E0
2.002481538E1	-2.802956700E-1	-2.567729473E0	-7.035657167E-1	2.677088909E0
2.004315600E1	9.976136684E-2	-2.276593208E0	-7.417204380E-1	2.396451163E0
2.006149662E1	4.982411861E-2	-2.024877548E0	-1.072670579E0	2.291993390E0
2.007983720E1	-2.349058390E-1	-1.990267754E0	-8.880662918E-1	2.192032897E0
2.009817782E1	-4.756778479E-1	-1.688618660E0	-7.281847000E-1	1.899461858E0
2.011651845E1	-7.017467022E-1	-1.184413910E0	-8.392312527E-1	1.612325600E0
2.013485907E1	-1.189503193E0	-5.900106430E-1	-1.147112489E0	1.754678736E0
2.015318688E1	-1.297395468E0	2.843742371E-1	-1.246248007E0	1.821328581E0
2.017154027E1	-1.118054152E0	1.247020721E0	-6.662497520E-1	1.802496740E0
2.018988090E1	-5.061880350E-1	1.832140923E0	8.878231049E-1	2.097902894E0
2.020822152E1	-3.457146883E-1	2.292618752E0	1.666249514E0	2.855171944E0
2.022656209E1	-6.765995622E-1	2.282608032E0	7.991430759E-1	2.511317593E0
2.024490272E1	-6.581081152E-1	2.684821129E0	-1.097347736E-1	2.766480165E0
2.026323053E1	5.261434913E-1	3.465573311E0	9.616410732E-1	3.634801081E0
2.028158392E1	1.540997744E0	3.828311920E0	1.866529942E0	4.529302400E0
2.029992459E1	3.871242404E-1	2.583954811E0	1.823067665E-1	2.619145548E0
2.031825235E1	-1.022518516E0	1.633020401E0	-1.458663702E0	2.416609100E0
2.033660574E1	-6.497072577E-1	2.166865349E0	-4.451861382E-1	2.305561896E0
2.035494636E1	5.910039544E-1	2.187987328E0	2.055797577E0	3.059882007E0
2.037328699E1	7.956680655E-1	1.347228050E0	2.275318146E0	2.761373527E0
2.039162756E1	5.546132922E-1	4.286384583E-2	2.149782419E0	2.220584982E0
2.040996819E1	9.826550484E-1	-1.045075417E0	2.833385229E0	3.175825157E0
2.042830881E1	1.769213319E0	-1.419494629E0	2.815601110E0	3.615617566E0
2.044664938E1	2.043896914E0	-1.384751320E0	1.612041473E0	2.948512934E0
2.046499001E1	1.882755876E0	-1.613618374E0	5.259833336E-1	2.534796325E0
2.048331782E1	1.281563759E0	-2.189509392E0	-5.532201529E-1	2.596615024E0
2.050167121E1	6.482523084E-1	-3.120171547E0	-1.268866301E0	3.430120002E0
2.052001183E1	2.521193624E-1	-3.938822746E0	-1.749015450E0	4.317052680E0
2.053835246E1	-4.992562532E-2	-4.362285614E0	-1.918053865E0	4.765601639E0
2.055669303E1	-3.163850307E-2	-4.180857658E0	-1.705428600E0	4.515424506E0
2.057503366E1	1.192411184E-1	-3.682192326E0	-1.179909229E0	3.868455061E0
2.059337428E1	9.097349644E-2	-3.040245533E0	-1.316002131E0	3.314095757E0
2.061171485E1	-1.763143837E-1	-2.358698368E0	-2.213066339E0	3.239167698E0
2.063005548E1	-2.024803162E-1	-1.584972858E0	-2.555490255E0	3.013912355E0
2.064838329E1	1.275606751E-1	-5.889673233E-1	-2.191590548E0	2.272932767E0
2.066673668E1	4.074334502E-1	7.022037506E-1	-1.781988263E0	1.958206908E0
2.068507725E1	7.375431657E-1	2.195913315E0	-1.399033308E0	2.706159530E0
2.070340511E1	1.115706444E0	3.164896965E0	-6.069611311E-1	3.410245663E0
2.072175845E1	1.580087185E0	2.656984329E0	9.286108017E-1	3.227779308E0
2.074009907E1	1.303592443E0	1.612450600E0	1.306677341E0	2.450868391E0
2.075843970E1	6.787482500E-1	1.055225372E0	5.528552532E-1	1.371075747E0
2.077678027E1	9.974092841E-1	1.422821999E0	3.262665272E-1	1.767964244E0
2.079512090E1	1.374403715E0	1.964334488E0	9.265146255E-1	2.570218844E0
2.081344871E1	8.536534756E-2	1.782024384E0	6.432600021E-1	1.896491913E0
2.083180209E1	-2.059362411E0	1.799067497E0	-1.124075890E0	2.956545959E0
2.085014267E1	-1.990016460E0	2.484766006E0	-2.410751581E-1	3.192545200E0
2.086847048E1	9.775806963E-2	3.367093086E0	3.440463781E0	4.814941695E0
2.088682386E1	1.348147750E0	3.287508011E0	5.952975750E0	6.932757861E0
2.090516449E1	4.268706143E-1	2.008193016E0	4.415328026E0	4.869309939E0
2.092349230E1	-1.181843519E0	3.143863678E-1	1.263470650E0	1.758394431E0
2.094184569E1	-1.499068260E0	-8.692865372E-1	-3.678464890E-2	1.733267966E0
2.096018626E1	-6.281540394E-1	-1.094137192E0	9.913372993E-2	1.265520125E0
2.097852688E1	9.368622303E-2	-1.376478195E0	1.870045662E-1	1.392278721E0
2.099686746E1	3.059695363E-1	-2.143195629E0	1.388056278E-1	2.169371306E0
2.101520808E1	1.184809208E-1	-2.991224766E0	-2.965147495E-1	3.008219461E0
2.103353590E1	-1.523828208E-1	-3.674256325E0	-7.259397507E-1	3.748382129E0
2.105188928E1	-3.625797331E-1	-4.058337688E0	-8.011057377E-1	4.152509995E0
2.107022985E1	-4.948402643E-1	-4.059245586E0	-4.677546024E-1	4.115961125E0
2.108857043E1	-4.158461690E-1	-3.625232697E0	-1.450147629E-1	3.651885735E0
2.110691105E1	-5.126932859E-1	-3.042520523E0	-6.499872208E-1	3.153136363E0
2.112525162E1	-6.749971509E-1	-2.218139648E0	-1.423119545E0	2.720484128E0
2.114357944E1	-4.783639610E-1	-1.250299454E0	-1.793147087E0	2.237734855E0
2.116193282E1	-2.348084748E-1	-1.916866302E-1	-1.730752110E0	1.757094662E0
2.118027340E1	-6.743180752E-2	9.373607635E-1	-1.362938404E0	1.655534156E0
2.119860126E1	-1.652520895E-2	2.212054253E0	-1.308409095E0	2.570095613E0
2.121695459E1	-2.818775177E-1	3.021442413E0	-9.804623127E-1	3.189024230E0
2.123529517E1	-6.680791974E-1	2.674943924E0	-9.212088585E-2	2.758648413E0
2.125363579E1	-7.649114132E-1	2.440855026E0	3.929781914E-1	2.587913172E0
2.127197636E1	2.411170006E-1	3.047468185E0	1.618309021E0	3.458919461E0
2.129031694E1	1.228679419E0	3.149567604E0	3.167647362E0	4.632862939E0
2.130864475E1	-3.552734852E-2	1.711281776E0	2.255638599E0	2.831546044E0
2.132699814E1	-2.342407465E0	3.204059601E-1	-7.417420149E-1	2.477844613E0
2.134533871E1	-9.557588696E-1	1.186086655E0	1.062020302E0	1.856923178E0
2.136366652E1	2.193287373E0	3.338221550E0	3.719042778E0	5.457610448E0
2.138201991E1	2.508686543E0	3.106173515E0	2.903857708E0	4.937024576E0
2.140036048E1	7.241214514E-1	6.030626297E-1	9.788329601E-1	1.358731164E0
2.141868829E1	1.963064671E-1	-1.138499260E0	9.605925083E-1	1.502482865E0
2.143704168E1	1.270540595E0	-1.023885727E0	1.891677856E0	2.498211460E0
2.145538225E1	1.915835023E0	-2.706165314E-1	1.961917877E0	2.755499755E0
2.147372282E1	1.761515379E0	-6.299495697E-2	1.018610001E0	2.035797418E0
2.149206340E1	9.410569668E-1	-5.060749054E-1	-5.121362209E-1	1.184898111E0
2.151040397E1	2.815420628E-1	-1.580236435E0	-1.207222223E0	2.008431881E0
2.152874459E1	-3.206992149E-2	-2.428970814E0	-1.430823088E0	2.819252100E0
2.154708517E1	-1.607043147E-1	-2.883000851E0	-1.456466317E0	3.234008954E0
2.156542574E1	-3.340154290E-1	-3.583870411E0	-1.465659261E0	3.886367262E0
2.158376631E1	-6.452550888E-1	-3.919020653E0	-1.901639462E0	4.403556477E0
2.160210688E1	-1.046429038E0	-3.702916145E0	-2.301963091E0	4.483930841E0
2.162044751E1	-6.772062182E-1	-2.806408882E0	-2.217211962E0	3.640132959E0
2.163877527E1	7.768142223E-2	-1.830969810E0	-1.855316401E0	2.607812071E0
2.165712866E1	2.603478432E-1	-7.965669632E-1	-2.243264675E0	2.394689193E0
2.167546923E1	-2.217785716E-1	3.528223038E-1	-3.108226538E0	3.136039146E0
2.169379704E1	-4.888194501E-1	1.389671326E0	-2.419696569E0	2.832854097E0
2.171215038E1	3.836911917E-2	2.084035873E0	-3.130130768E-1	2.107760636E0
2.173049095E1	7.058113813E-1	2.343536377E0	1.175422192E0	2.715133475E0
2.174883152E1	7.825261950E-1	2.115026474E0	1.012322187E0	2.471938600E0
2.176717209E1	9.893712401E-2	1.572538376E0	8.082935810E-1	1.770876622E0
2.178551267E1	8.077963591E-1	1.464901924E0	2.184747696E0	2.751653158E0
2.180385324E1	1.809973717E0	2.665274620E0	2.709978819E0	4.209949982E0
2.182219381E1	5.054504275E-1	3.114686012E0	-3.222773075E-1	3.171846742E0
2.184053438E1	-2.911839962E0	2.326557159E0	-4.401440620E0	5.767526308E0
2.185886220E1	-2.541895866E0	1.860629082E0	-1.137476206E0	3.349183079E0
2.187721553E1	1.492839098E0	3.087501526E0	6.694595814E0	7.521891209E0
2.189555610E1	3.347810745E0	3.363483429E0	9.492366791E0	1.061253433E1
2.191388392E1	1.428478479E0	2.510332108E0	5.782896042E0	6.464070288E0
2.193223725E1	-7.351686358E-1	9.760780334E-1	1.346917629E0	1.818622652E0
2.195057782E1	-9.630492926E-1	-6.952428818E-1	-7.556581497E-2	1.190183514E0
2.196890564E1	-6.279921532E-1	-1.719626427E0	-9.680819511E-1	2.070910876E0
2.198725897E1	-4.184472263E-1	-2.321657658E0	-1.913366079E0	3.037459813E0
2.200559954E1	-3.393172622E-1	-2.706284523E0	-2.172915459E0	3.487215754E0
2.202394011E1	7.963097095E-2	-2.926898479E0	-1.804543376E0	3.439397127E0
2.204228074E1	6.125836372E-1	-2.651622772E0	-1.014604211E0	2.904442071E0
2.206062126E1	9.467955828E-1	-2.447903633E0	-3.661997318E-1	2.650048361E0
2.207896183E1	8.112653494E-1	-2.621279240E0	-1.189045906E-1	2.746524098E0
2.209730241E1	4.188563824E-1	-2.995591164E0	-4.206874371E-1	3.053847575E0
2.211564298E1	9.909451008E-3	-3.369729996E0	-5.953216553E-1	3.421927281E0
2.213398355E1	-4.752289951E-1	-3.738005161E0	-1.045426369E0	3.910427275E0
2.215232412E1	-8.981187344E-1	-2.987151146E0	-1.721743226E0	3.562876502E0
2.217066470E1	-9.295455217E-1	-1.083427429E0	-1.894721031E0	2.372306400E0
2.218899246E1	-5.169667006E-1	4.427680969E-1	-1.002212286E0	1.211498091E0
2.220734579E1	-5.758815408E-1	1.243020058E0	-7.374989986E-1	1.555841633E0
2.222568642E1	-5.830170512E-1	1.771706581E0	-4.387326241E-1	1.916073957E0
2.224401418E1	-3.188053966E-1	2.767876625E0	-1.727845669E-1	2.791528685E0
2.226236751E1	-2.543839812E-1	3.949176788E0	-7.910346985E-2	3.958151826E0
2.228070808E1	-3.015287220E-1	3.953889847E0	4.397392273E-1	3.989678568E0
2.229903590E1	4.303839207E-1	3.346019745E0	2.249491215E0	4.054785960E0
2.231738918E1	1.316034436E0	2.665705681E0	3.265734911E0	4.416215339E0
2.233572975E1	2.501296997E-2	1.737732887E0	1.011631966E0	2.010905386E0
2.235405756E1	-1.711588502E0	1.435128212E0	-1.996758223E0	2.996025965E0
2.237241090E1	-1.002691507E0	1.907588005E0	-8.243008852E-1	2.307326203E0
2.239075142E1	8.441407681E-1	2.429656982E0	2.283221006E0	3.439317498E0
2.240907923E1	1.645325184E0	2.117003441E0	3.364308834E0	4.302019579E0
2.242743256E1	1.250165820E0	1.189763069E0	2.949517012E0	3.417323710E0
2.244577314E1	1.136129379E0	-7.450275421E-1	3.956559658E0	4.183326467E0
2.246410090E1	1.419303894E0	-1.994583607E0	3.825454473E0	4.541683524E0
2.248245423E1	1.213546395E0	-2.244476795E0	1.852816582E0	3.153299894E0
2.250079480E1	1.239690065E0	-2.110551357E0	-1.075231075E0	2.673458501E0
2.251912256E1	2.265747190E-1	-2.199127197E0	-2.148813486E0	3.083001124E0
2.253747590E1	-4.246265292E-1	-3.243629932E0	-2.035638094E0	3.852955395E0
2.255581647E1	-1.374723911E-1	-3.926952839E0	-2.001711130E0	4.409841801E0
2.257415704E1	4.146161377E-1	-4.044393539E0	-1.703691483E0	4.408127756E0
2.259249756E1	7.189894915E-1	-4.128634930E0	-1.327239394E0	4.395922734E0
2.261083814E1	3.681468368E-1	-3.532976151E0	-9.228761196E-1	3.670034456E0
2.262916590E1	1.023194790E-1	-2.234697342E0	-1.385296822E0	2.631233317E0
2.264751923E1	3.191918135E-3	-1.482436657E0	-1.832926512E0	2.357381647E0
2.266585980E1	3.214973211E-2	-7.741508484E-1	-2.073361397E0	2.213407017E0
2.268418756E1	9.494918585E-2	-1.692743301E-1	-1.380672216E0	1.394247079E0
2.270254090E1	4.206204414E-2	7.395391464E-1	-7.768625021E-1	1.073407058E0
2.272088147E1	5.165190697E-1	1.626502037E0	-7.226177454E-1	1.853234263E0
2.273920923E1	8.521487713E-1	2.473558426E0	-1.042970896E0	2.816458255E0
2.275756256E1	1.093239784E0	2.462331772E0	-1.251683235E-1	2.697020224E0
2.277590314E1	9.397628307E-1	1.882650375E0	7.096598148E-1	2.220617857E0
2.279424366E1	6.967566609E-1	1.858283043E0	4.258406162E-1	2.029784703E0
2.281258423E1	1.383542180E0	2.098361969E0	9.612417221E-2	2.515263758E0
2.283092475E1	2.155117989E0	2.983463287E0	7.308714390E-1	3.752300600E0
2.284925256E1	9.424510598E-1	2.321903229E0	7.035980225E-1	2.602786734E0
2.286760584E1	-1.855450749E0	2.006896973E0	-1.817270637E0	3.282195227E0
2.288594642E1	-2.744721651E0	2.938081741E0	-2.707829714E0	4.847490384E0
2.290427418E1	-5.204108953E-1	3.999686241E0	9.888828993E-1	4.152855273E0
2.292262751E1	1.270084500E0	3.912865639E0	5.226285458E0	6.651142145E0
2.294096808E1	9.045557976E-1	2.310868263E0	5.728227615E0	6.242669696E0
2.295929584E1	-1.017269015E0	-9.138422012E-1	3.434826136E0	3.697022369E0
2.297764918E1	-2.699796677E0	-3.162117004E0	7.073631287E-1	4.217611722E0
2.299598970E1	-2.378339767E0	-3.844909191E0	-2.740263939E-1	4.529339599E0
2.301431751E1	-7.064135075E-1	-3.282699108E0	5.561075211E-1	3.403584736E0
2.303267079E1	4.101796746E-1	-2.914850235E0	1.020168781E0	3.115340046E0
2.305101131E1	5.349556804E-1	-2.971984863E0	5.928022861E-1	3.077383005E0
2.306935188E1	1.648956239E-1	-3.402101994E0	8.978295326E-2	3.407278903E0
2.308769241E1	2.802950144E-2	-3.677087784E0	-3.985848427E-1	3.698733581E0
2.310603298E1	-1.806953549E-2	-3.801749229E0	-8.525899649E-1	3.896220394E0
2.312437350E1	-5.637028813E-2	-3.433256149E0	-1.020588398E0	3.582181748E0
2.314271407E1	1.027268171E-2	-2.776759624E0	-1.158985734E0	3.008944578E0
2.316105459E1	-2.010185421E-1	-2.090120316E0	-1.501007199E0	2.581091630E0
2.317938235E1	-4.601126611E-1	-1.176642418E0	-1.973249435E0	2.343054497E0
2.319773569E1	-5.591758490E-1	5.468921661E-1	-2.196702242E0	2.331795319E0
2.321607621E1	-1.410922110E-1	2.446063995E0	-1.277875066E0	2.763349555E0
2.323440397E1	1.157219410E-1	3.552231789E0	2.585761547E-1	3.563510050E0
2.325275730E1	-2.880778909E-1	3.629668236E0	6.583201885E-1	3.700117004E0
2.327109782E1	-8.118611574E-1	3.443820953E0	3.836307526E-1	3.558959659E0
2.328943840E1	-3.947501779E-1	3.768040657E0	8.456287384E-1	3.881886920E0
2.330777892E1	6.913619041E-1	3.978623390E0	2.043113947E0	4.525675636E0
2.332611944E1	7.389873862E-1	3.205187798E0	2.145763636E0	3.927293312E0
2.334444720E1	-5.116915703E-1	2.004611969E0	4.178142548E-2	2.069309812E0
2.336280053E1	-6.812843084E-1	2.002841949E0	-1.096266031E0	2.382713452E0
2.338114105E1	6.023404598E-1	2.634741783E0	1.102057695E0	2.918768483E0
2.339946881E1	1.268803000E0	1.606658936E0	3.344443560E0	3.921290185E0
2.341782215E1	4.178545177E-1	-5.307283401E-1	2.800209045E0	2.880528713E0
2.343616272E1	-1.040331423E-1	-1.991831779E0	1.627233982E0	2.574122601E0
2.345450324E1	9.396095276E-1	-1.869260311E0	1.887908697E0	2.818013382E0
2.347284376E1	2.255187511E0	-8.765583038E-1	2.257899284E0	3.309431122E0
2.349118428E1	2.968133211E0	4.122447968E-2	2.194961309E0	3.691797579E0
2.350952480E1	2.346348763E0	-1.180765152E0	6.886012554E-1	2.715461388E0
2.352786538E1	1.480133891E0	-2.045627117E0	-1.239257574E0	2.812675945E0
2.354620590E1	9.440090060E-1	-3.039774895E0	-2.566014051E0	4.088497588E0
2.356454642E1	7.836295962E-1	-3.391434193E0	-1.947945952E0	3.988783607E0
2.358288694E1	5.715710521E-1	-3.536311626E0	-1.570939422E0	3.911527074E0
2.360122751E1	1.535805762E-1	-3.499887466E0	-1.599961162E0	3.851321201E0
2.361956803E1	1.413291693E-2	-3.200246334E0	-1.465217590E0	3.519749838E0
2.363790855E1	-2.512724698E-2	-2.853369713E0	-1.750426292E0	3.347587535E0
2.365624907E1	1.910827756E-1	-2.363695145E0	-1.704226136E0	2.920266099E0
2.367458959E1	5.171529055E-1	-1.811912537E0	-1.748947620E0	2.570854322E0
2.369293017E1	4.956368208E-1	-1.036345482E0	-1.751227021E0	2.094388669E0
2.371127069E1	4.778570235E-1	4.825496674E-2	-1.929795742E0	1.988664749E0
2.372959845E1	7.405459881E-1	1.131568909E0	-9.760961533E-1	1.667819012E0
2.374795173E1	1.156920433E0	2.154881477E0	-4.574799538E-2	2.446236282E0
2.376629225E1	1.322195768E0	2.775414467E0	3.625066280E-1	3.095567503E0
2.378463277E1	1.065377593E0	2.689453125E0	-1.169316769E-1	2.895144305E0
2.380297334E1	6.686826944E-1	2.718338013E0	-6.202920675E-1	2.867274027E0
2.382131386E1	9.555214643E-1	3.021190643E0	1.091845036E-1	3.170573359E0
2.383965439E1	6.967402697E-1	3.449352264E0	1.355884075E-1	3.521627786E0
2.385799491E1	-1.498881221E0	3.556482315E0	-1.402701735E0	4.106431971E0
2.387633543E1	-3.120952606E0	3.978701591E0	-1.627741218E0	5.312245570E0
2.389466319E1	-1.837524891E0	4.112515450E0	2.614209652E0	5.208010479E0
2.391301647E1	2.391079068E-2	4.743121147E0	7.234928608E0	8.651124892E0
2.393135699E1	6.648118496E-1	3.335222244E0	8.643562317E0	9.288533347E0
2.394968475E1	-7.084175944E-1	3.934068680E-1	5.631808758E0	5.689806177E0
2.396803803E1	-2.564187288E0	-2.660129547E0	1.652297497E0	4.047398260E0
2.398637855E1	-2.757616997E0	-3.539290428E0	-1.231452227E0	4.652687699E0
2.400470631E1	-1.292398453E0	-3.018521309E0	-2.053625822E0	3.872872793E0
2.402305965E1	2.346878052E-1	-2.311246872E0	-1.546367049E0	2.790733151E0
2.404140017E1	1.156759501E0	-1.901936531E0	-1.407857776E0	2.633916974E0
2.405974069E1	1.220983267E0	-2.401274204E0	-1.920350075E0	3.308271807E0
2.407808121E1	6.300256848E-1	-3.291670322E0	-2.519974232E0	4.193124850E0
2.409642173E1	2.998723686E-1	-4.146862507E0	-2.347015381E0	4.774397688E0
2.411476225E1	-3.697061539E-2	-4.215348244E0	-1.728436232E0	4.556096953E0
2.413310277E1	-1.251329780E-1	-3.636671543E0	-8.544903994E-1	3.737805776E0
2.415144329E1	-3.815072477E-1	-3.126179218E0	-8.406605721E-1	3.259640238E0
2.416978381E1	-9.765943289E-1	-2.775902748E0	-2.090526819E0	3.609664102E0
2.418812433E1	-1.280776858E0	-1.809455872E0	-2.490850449E0	3.334494845E0
2.420646480E1	-7.446287870E-1	1.781139374E-1	-1.723502636E0	1.885910375E0
2.422479256E1	-7.761698961E-2	2.328913689E0	-7.695103884E-1	2.453978322E0
2.424314584E1	2.119755149E-1	3.495602608E0	1.694521904E-1	3.506121112E0
2.426148636E1	-2.545635104E-1	3.675041199E0	5.433444977E-1	3.723701604E0
2.427982689E1	-5.838220119E-1	3.102127075E0	3.759899139E-1	3.178900588E0
2.429816741E1	-2.918590307E-1	2.973938942E0	5.996603966E-1	3.047800373E0
2.431650793E1	1.036324382E0	3.680762291E0	1.898931980E0	4.269417048E0
2.433484845E1	1.197819710E0	3.744581223E0	2.245870829E0	4.527758426E0
2.435318897E1	-5.355203152E-2	2.737850189E0	6.552746296E-1	2.815683988E0
2.437152949E1	-4.096145332E-1	2.534450531E0	-4.631737471E-1	2.608783908E0
2.438985720E1	8.280657530E-1	3.241584778E0	1.582645178E0	3.701125575E0
2.440821053E1	1.581980467E0	2.895256042E0	3.843464375E0	5.065312246E0
2.442655100E1	7.816335559E-1	1.473644257E0	3.522294283E0	3.897324137E0
2.444487876E1	-3.636044264E-2	-5.594177246E-1	2.272388935E0	2.340517410E0
2.446323204E1	-3.809225559E-2	-1.904871941E0	1.455123663E0	2.397367933E0
2.448157256E1	5.507367253E-1	-1.925099373E0	1.138066173E0	2.303152871E0
2.449991308E1	1.076579690E0	-1.638737679E0	1.079250336E0	2.238139025E0
2.451825360E1	1.131005287E0	-1.717217445E0	7.340610027E-1	2.183312683E0
2.453659407E1	8.840807676E-1	-2.422422409E0	4.915137291E-1	2.625131402E0
2.455493459E1	5.724170208E-1	-3.068662643E0	3.894622326E-1	3.145796003E0
2.457327511E1	3.748929501E-1	-3.320272446E0	2.940466404E-1	3.354283420E0
2.459161564E1	2.359594703E-1	-3.450217247E0	1.156067848E-1	3.460208209E0
2.460995616E1	-1.320181489E-1	-3.804480076E0	-4.176993370E-1	3.829617497E0
2.462829668E1	-5.035527349E-1	-4.078231812E0	-1.237692356E0	4.291552450E0
2.464663715E1	-4.560081661E-1	-3.454654694E0	-1.936440468E0	3.986525327E0
2.466497767E1	-1.901294887E-1	-2.740435123E0	-2.042464733E0	3.423126652E0
2.468331819E1	-4.754602909E-3	-2.092886448E0	-2.026482105E0	2.913215751E0
2.470165866E1	1.657547355E-1	-1.343956947E0	-2.192373037E0	2.576857474E0
2.471998642E1	3.171232939E-1	-2.844018936E-1	-2.324777603E0	2.363481018E0
2.473833970E1	6.979180574E-1	4.801750183E-1	-1.646160722E0	1.851351610E0
2.475668022E1	8.681994677E-1	1.335298538E0	-1.657544374E0	2.298748759E0
2.477500793E1	8.632228971E-1	2.183420181E0	-1.554203153E0	2.815674857E0
2.479336121E1	8.488997817E-1	3.176472664E0	-1.031912088E0	3.446077768E0
2.481170173E1	9.601887465E-1	4.086680412E0	-1.498041153E-1	4.200638106E0
2.483002944E1	1.732036829E0	4.482415199E0	1.112886429E0	4.932597064E0
2.484838272E1	1.936473250E0	4.837467194E0	2.023461342E0	5.589759682E0
2.486672324E1	5.534718037E-1	4.001108170E0	8.965544701E-1	4.137512240E0
2.488505095E1	-1.427297592E0	2.984533310E0	-1.224414349E0	3.527578205E0
2.490340423E1	-1.693235636E0	2.972936630E0	-4.181837440E-1	3.446777737E0
2.492174475E1	-7.030299306E-2	3.004715919E0	3.373939514E0	4.518487370E0
2.494007246E1	3.752623200E-1	2.065181732E0	5.035705566E0	5.455651010E0
2.495842574E1	-8.710187674E-1	7.570838928E-2	3.329216957E0	3.442105606E0
2.497676621E1	-1.943146944E0	-1.629632950E0	1.057023883E0	2.747512163E0
2.499509397E1	-1.686274529E0	-2.394334793E0	1.589211226E-1	2.932851311E0
2.501344725E1	-7.803442478E-1	-2.497420311E0	-4.543797970E-1	2.655655541E0
2.503178772E1	-1.684575081E-1	-2.074056625E0	-1.075547338E0	2.342411341E0
2.505012824E1	1.245219707E-1	-1.781667709E0	-7.137407064E-1	1.923348992E0
2.506846876E1	9.826982021E-2	-2.291498184E0	2.269153595E-1	2.304801828E0
2.508680923E1	-4.162096977E-1	-3.360658646E0	8.178989887E-1	3.483707192E0
2.510513694E1	-1.099443555E0	-4.232911587E0	2.709558010E-1	4.381750070E0
2.512349022E1	-1.361761808E0	-4.506361008E0	-7.384949923E-1	4.765192505E0
2.514183074E1	-9.048444629E-1	-3.335151672E0	-9.209934473E-1	3.576340184E0
2.516015845E1	-4.777980447E-1	-1.973811150E0	-2.260322571E-1	2.043358022E0
2.517851173E1	-8.050262332E-1	-1.349442482E0	-7.833362818E-1	1.755755672E0
2.519685220E1	-1.144907832E0	-1.248991966E0	-1.459740877E0	2.236434283E0
2.521517996E1	-1.146262884E0	-6.205863953E-1	-1.944074273E0	2.340613350E0
2.523353319E1	-8.238165379E-1	1.066658020E0	-1.811342597E0	2.257741133E0
2.525187371E1	2.121390700E-1	3.046318054E0	-2.524377108E-1	3.064111857E0
2.527020142E1	1.311373711E0	4.109160423E0	1.304861784E0	4.506391535E0
2.528855470E1	1.489861250E0	4.102463722E0	1.815803528E0	4.727265339E0
2.530689517E1	1.504641652E0	4.364701271E0	2.159137249E0	5.096708482E0
2.532522288E1	2.223318100E0	4.882996559E0	3.020602226E0	6.157177647E0
2.534357616E1	2.135010004E0	4.095728874E0	3.223976851E0	5.632698240E0
2.536191668E1	2.268716693E-1	1.937841415E0	9.850490093E-1	2.185639873E0
2.538024438E1	-1.228315592E0	1.552515030E0	-1.374538898E0	2.410066243E0
2.539859767E1	-4.470494688E-1	2.890186310E0	-2.319658995E-1	2.933741350E0
2.541693814E1	9.155702591E-1	2.980774879E0	2.566622734E0	4.038668102E0
2.543526584E1	5.549495816E-1	1.445528984E0	2.314371586E0	2.784571586E0
2.545361913E1	-5.104025006E-1	-1.016192436E0	8.189616203E-1	1.401376436E0
2.547195959E1	-6.759675741E-1	-2.618924141E0	2.733480930E-1	2.718531772E0
2.549028735E1	-5.201637745E-3	-2.955265045E0	5.740240812E-1	3.010501983E0
2.550864058E1	5.938307047E-1	-3.174967289E0	7.345377207E-1	3.312491186E0
2.552698110E1	8.778066635E-1	-3.493724823E0	7.780811787E-1	3.685385733E0
2.554532157E1	1.115024328E0	-3.685473919E0	8.073046207E-1	3.934175646E0
2.556366204E1	1.102997780E0	-4.003656387E0	2.624813318E-1	4.161101419E0
2.558200251E1	1.007467389E0	-4.377749443E0	-4.726783037E-1	4.516979688E0
2.560034303E1	6.965634227E-1	-4.592972755E0	-9.697045088E-1	4.745621789E0
2.561868355E1	3.928024471E-1	-4.298628807E0	-1.522530437E0	4.577182792E0
2.563702402E1	2.609428167E-1	-3.531101227E0	-1.803625107E0	3.973641976E0
2.565535168E1	-1.667391062E-1	-2.556775093E0	-2.042775869E0	3.276863448E0
2.567370496E1	-5.124203563E-1	-1.097723007E0	-2.188490152E0	2.501411515E0
2.569204543E1	-3.741066158E-1	-2.519512177E-2	-2.478015900E0	2.506222926E0
2.571037314E1	2.647813559E-1	1.522464752E0	-2.105635405E0	2.611840069E0
2.572872642E1	1.065637946E0	2.672775269E0	-7.052557468E-1	2.962549162E0
2.574706689E1	1.487834692E0	2.951341629E0	-1.130681038E-1	3.307091453E0
2.576540735E1	1.381601214E0	2.969996452E0	-4.730281830E-1	3.309600656E0
2.578374788E1	9.428062439E-1	2.680713654E0	-6.759257317E-1	2.920956162E0
2.580208834E1	7.728719711E-1	2.570084572E0	-9.162354469E-2	2.685341815E0
2.582041605E1	1.036315560E0	2.652262688E0	9.360909462E-1	2.997451178E0
2.583876928E1	1.714008212E0	2.998723984E0	1.702741385E0	3.850908712E0
2.585710975E1	1.795016050E0	3.174775124E0	1.645170093E0	4.000982922E0
2.587543746E1	3.308168650E-1	2.198056221E0	3.079652786E-3	2.222813630E0
2.589379074E1	-1.791639924E0	1.022851944E0	-1.813431978E0	2.746768148E0
2.591213121E1	-2.472041368E0	3.790111542E-1	-1.088892102E0	2.727695730E0
2.593045892E1	-1.114338756E0	7.553510666E-1	1.781235337E0	2.232734965E0
2.594881220E1	-2.100147605E-1	1.311738014E0	3.141787529E0	3.411098312E0
2.596715261E1	-7.844424248E-1	7.722902298E-1	2.344563961E0	2.590127851E0
2.598549308E1	-1.550453424E0	-3.464641571E-1	8.428105116E-1	1.798408405E0
2.600383355E1	-1.405740261E0	-9.878396988E-1	1.269377470E-1	1.722801830E0
2.602217402E1	-7.292990685E-1	-1.197707176E0	3.177715540E-1	1.437831135E0
2.604051454E1	-3.280553818E-1	-1.389914513E0	2.931057215E-1	1.457872988E0
2.605885501E1	-8.161151409E-2	-1.918630600E0	4.802663326E-1	1.979509931E0
2.607719548E1	-1.100081801E-1	-2.223275661E0	3.008937836E-1	2.246239866E0
2.609553595E1	-2.173587978E-1	-2.742958069E0	2.303950787E-1	2.761185562E0
2.611387642E1	-2.473946512E-1	-3.471198082E0	4.230616093E-1	3.505624247E0
2.613221689E1	-2.416718304E-1	-3.696412086E0	-8.978104591E-2	3.705391777E0
2.615055735E1	-2.037778199E-1	-3.611948490E0	-9.639091492E-1	3.743904131E0
2.616889782E1	-2.592306137E-1	-3.433616638E0	-1.735287428E0	3.855923519E0
2.618723829E1	-5.212377310E-1	-2.691657066E0	-2.221491337E0	3.528700936E0
2.620556595E1	-5.839905739E-1	-1.528439522E0	-1.863631725E0	2.479978945E0
2.622391918E1	-7.185210586E-1	-5.037050247E-1	-1.718925595E0	1.929947270E0
2.624225965E1	-6.491866708E-1	8.552885056E-1	-1.885119438E0	2.169478522E0
2.626058735E1	-2.778956890E-1	2.800476074E0	-1.141157269E0	3.036796366E0
2.627894058E1	-2.144535482E-1	4.152428627E0	8.724856377E-2	4.158877990E0
2.629728105E1	1.241898239E-1	4.331084251E0	1.513258934E0	4.589517023E0
2.631560871E1	8.060588837E-1	4.811140060E0	2.167060375E0	5.337878818E0
2.633396199E1	1.340464234E0	5.104028702E0	2.069698572E0	5.668474709E0
2.635230246E1	7.342793345E-1	3.614196777E0	1.522038221E0	3.989759997E0
2.637063017E1	-1.172027349E0	1.490649223E0	-4.086613655E-1	1.939764761E0
2.638898334E1	-1.395986080E0	1.656254768E0	-2.805212736E-1	2.184181581E0
2.640732381E1	4.343651533E-1	2.605671883E0	2.659865856E0	3.748744512E0
2.642566428E1	1.224753857E0	2.575414658E0	3.388234138E0	4.428646886E0
2.644400470E1	6.134458780E-1	1.425265312E0	2.160623550E0	2.660073529E0
2.646234517E1	4.605060816E-1	-1.488361359E-1	2.460086346E0	2.507238097E0
2.648067288E1	1.091683865E0	-1.501955986E0	2.963455677E0	3.497100941E0
2.649902610E1	1.523660898E0	-2.231575012E0	2.069922686E0	3.403828652E0
2.651736652E1	1.523568869E0	-2.505606651E0	1.237368584E-1	2.935070289E0
2.653569423E1	9.815662503E-1	-2.911594868E0	-1.028078318E0	3.240031173E0
2.655404746E1	6.577763557E-1	-3.228594780E0	-1.371799469E0	3.569079401E0
2.657238788E1	2.741691470E-1	-3.188014507E0	-1.432803512E0	3.505927997E0
2.659072840E1	2.063519955E-1	-2.884502411E0	-8.776811361E-1	3.022128303E0
2.660906881E1	-1.699942350E-2	-3.099407196E0	-6.673549414E-1	3.170485225E0
2.662740928E1	-4.884548783E-1	-3.784576416E0	-7.922040224E-1	3.897331655E0
2.664574970E1	-8.469315767E-1	-3.911669731E0	-1.618353724E0	4.317119637E0
2.666409017E1	-1.070944548E0	-3.356639385E0	-2.486644745E0	4.312464756E0
2.668243058E1	-1.047706842E0	-2.320430279E0	-2.670893192E0	3.689953489E0
2.670075829E1	-8.163390160E-1	-1.331464767E0	-2.168051481E0	2.672013294E0
2.671911152E1	-2.008571625E-1	2.837944031E-2	-1.308717132E0	1.324344941E0
2.673745194E1	5.075433254E-1	1.269900322E0	-7.703919411E-1	1.569633969E0
2.675577959E1	9.648089409E-1	2.249188423E0	-4.657315016E-1	2.491307024E0
2.677413282E1	1.388735056E0	2.649882317E0	8.191728592E-2	2.992853453E0
2.679247329E1	1.160308838E0	2.925182343E0	-7.197487354E-2	3.147727548E0
2.681081371E1	1.000503421E0	3.001632690E0	-2.736284733E-1	3.175795718E0
2.682915418E1	1.251310110E0	2.923912048E0	-3.498549461E-1	3.199599528E0
2.684749459E1	1.716872692E0	3.138601303E0	2.793657780E-1	3.588386158E0
2.686583506E1	1.663067579E0	3.264790535E0	1.214572549E0	3.860030762E0
2.688417553E1	-6.850007921E-2	2.183341980E0	6.260218620E-1	2.272350729E0
2.690251595E1	-2.157461643E0	1.199032784E0	-1.032535076E0	2.675527806E0
2.692085636E1	-2.118995428E0	1.460416794E0	-8.713166714E-1	2.717011516E0
2.693919683E1	-4.234778881E-1	2.510949135E0	1.990601778E0	3.232134669E0
2.695753725E1	2.561458945E-1	2.646483421E0	3.574165344E0	4.454676546E0
2.697586496E1	-9.319394827E-1	1.227687836E0	1.786518574E0	2.359529028E0
2.699421814E1	-2.012694597E0	-4.336204529E-1	1.982355118E-2	2.058970425E0
2.701255860E1	-1.999351621E0	-1.279532433E0	-2.751249075E-1	2.389624210E0
2.703089902E1	-1.315117359E0	-1.155338287E0	2.665152550E-1	1.770697774E0
2.704923944E1	-8.648355007E-1	-1.245430946E0	7.975325584E-1	1.713212441E0
2.706757985E1	-8.053693771E-1	-1.934575558E0	4.956300259E-1	2.153334982E0
2.708592032E1	-6.402967572E-1	-2.509852886E0	3.446030617E-2	2.590468869E0
2.710426074E1	-4.031670988E-1	-2.966695786E0	2.741873264E-1	3.006494019E0
2.712260116E1	-2.501958609E-1	-3.149798393E0	4.506194592E-1	3.191690114E0
2.714094162E1	-6.408941746E-2	-2.963408947E0	1.815969944E-1	2.969659494E0
2.715928204E1	-1.387637854E-1	-3.038853645E0	-3.131554127E-1	3.058096332E0
2.717762246E1	-5.413188934E-1	-3.221113682E0	-9.574753046E-1	3.403727142E0
2.719596293E1	-6.234813929E-1	-2.858201504E0	-9.916783571E-1	3.088927135E0
2.721430334E1	-5.011367798E-2	-1.865522385E0	-1.907019615E-1	1.875913747E0
2.723264376E1	5.069970489E-1	-2.994823456E-1	-1.599844694E-1	6.101890800E-1
2.725097142E1	4.852949381E-1	1.047438622E0	-7.638435364E-1	1.384231119E0
2.726932465E1	1.567272544E-1	1.983964920E0	-8.643316031E-1	2.169734859E0
2.728766506E1	-5.441769361E-1	2.225998878E0	-9.507468939E-1	2.480951269E0
2.730600548E1	-1.152544618E0	1.718482018E0	-2.594016790E-1	2.085384562E0
2.732434590E1	-8.775708079E-1	1.945233345E0	3.323764801E-1	2.159754017E0
2.734268631E1	5.374866724E-2	3.147821426E0	1.119363904E0	3.341353648E0
2.736102678E1	6.638165712E-1	3.572913170E0	2.004738808E0	4.150341992E0
2.737936720E1	-4.341531396E-1	2.872026443E0	3.308284283E-1	2.923435015E0
2.739770761E1	-5.088369846E-1	2.959809303E0	-4.455437660E-1	3.036098720E0
2.741603527E1	7.497161031E-1	3.861881256E0	1.070320129E0	4.076982493E0
2.743438845E1	1.324465752E0	3.432744980E0	2.696794271E0	4.561868802E0
2.745272886E1	9.210907817E-1	1.795859337E0	2.710643768E0	3.379513075E0
2.747105652E1	4.673437178E-1	-2.123632431E-1	1.841192245E0	1.911412353E0
2.748940970E1	5.056533813E-1	-1.166990280E0	1.356246471E0	1.859289151E0
2.750775017E1	8.554792404E-1	-1.199510574E0	1.640743017E0	2.205154869E0
2.752609058E1	1.028060675E0	-1.182627678E0	1.435720682E0	2.125279006E0
2.754443100E1	7.217628360E-1	-1.695557594E0	2.842137814E-1	1.864573576E0
2.756277142E1	2.304347157E-1	-2.780116081E0	-1.112883210E0	3.003440464E0
2.758109907E1	-7.314682007E-3	-3.468893528E0	-2.202705622E0	4.109159022E0
2.759945225E1	-8.576697111E-2	-3.636464119E0	-2.399086475E0	4.357389491E0
2.761779267E1	-1.247592568E-1	-3.420674801E0	-1.862468719E0	3.896841118E0
2.763613308E1	-3.247469664E-3	-3.087346077E0	-1.153990269E0	3.295968732E0
2.765447350E1	-2.239462733E-2	-2.654057503E0	-1.166682005E0	2.899253291E0
2.767281392E1	-2.694079280E-2	-1.831872463E0	-1.666052580E0	2.476330698E0
2.769114152E1	3.225678205E-2	-9.208993912E-1	-2.346391439E0	2.520842910E0
2.770949475E1	8.964878321E-2	-2.312469482E-1	-2.592200041E0	2.604037847E0
2.772783517E1	-1.212219894E-1	1.695470810E-1	-2.505722761E0	2.514376173E0
2.774617558E1	-4.082388878E-1	5.480413437E-1	-2.471363068E0	2.564106807E0
2.776451595E1	-1.779748797E-1	1.233082771E0	-1.603787184E0	2.030837637E0
2.778285636E1	2.150309980E-1	1.835603714E0	-4.776495695E-1	1.908881462E0
2.780119683E1	6.277409196E-2	2.049339294E0	-2.054347992E-1	2.060566812E0
2.781953720E1	-4.571640491E-2	2.083202362E0	-2.180004120E-2	2.083817965E0
2.783787767E1	6.001952887E-1	2.240320206E0	1.408761263E0	2.713646496E0
2.785621803E1	3.144275248E-1	1.749502182E0	2.226168633E0	2.848762772E0
2.787455845E1	-1.567204118E0	8.952751160E-1	-4.840801954E-1	1.868684006E0
2.789289886E1	-1.991912007E0	1.675028801E0	-1.999172091E0	3.281786705E0
2.791122647E1	5.111998320E-2	3.269378662E0	1.914958954E0	3.789263502E0
2.792957965E1	1.417519212E0	3.822157860E0	5.439401150E0	6.797450720E0
2.794792006E1	3.742173910E-1	2.684453011E0	4.086540222E0	4.903686125E0
2.796624767E1	-1.225680828E0	6.277132034E-1	1.166706800E0	1.804860692E0
2.798460090E1	-1.839920044E0	-7.591438293E-1	4.144260883E-1	2.033065199E0
2.800294126E1	-8.396111727E-1	-8.315029144E-1	1.783699751E0	2.139609502E0
2.802128168E1	5.537182093E-2	-7.822475433E-1	2.383588314E0	2.509276890E0
2.803962209E1	4.185175896E-2	-1.264816284E0	9.850571156E-1	1.603698639E0
2.805796246E1	-3.892948031E-1	-2.349467754E0	-6.464433670E-1	2.467678707E0
2.807629011E1	-4.352588058E-1	-3.213589191E0	-1.375352979E0	3.522527720E0
2.809464329E1	-2.946226597E-1	-3.534667015E0	-1.163854957E0	3.732992336E0
2.811298371E1	-1.501452327E-1	-3.190582275E0	-7.321062088E-1	3.276940394E0
2.813132407E1	-4.598897099E-1	-2.523375988E0	-8.783349991E-1	2.711161613E0
2.814966449E1	-7.767759562E-1	-1.784723759E0	-1.222972035E0	2.298756268E0
2.816800491E1	-6.709471941E-1	-5.882492065E-1	-1.430109859E0	1.685651647E0
2.818633251E1	-5.247214437E-1	7.228469849E-2	-1.348248959E0	1.448562365E0
2.820468569E1	-5.427370667E-1	7.104177475E-1	-1.680687189E0	1.903671801E0
2.822302605E1	-4.571138024E-1	1.849567413E0	-1.293152332E0	2.302627977E0
2.824135371E1	-4.220444560E-1	2.733771324E0	6.971836090E-3	2.766166261E0
2.825970683E1	-5.591338873E-1	3.027868271E0	6.010055542E-1	3.137168253E0
2.827804725E1	-2.939347625E-1	2.759124756E0	5.485064983E-1	2.828431799E0
2.829637485E1	4.846262932E-1	2.551425934E0	1.634502411E0	3.068588449E0
2.831472803E1	1.368219376E0	2.593277931E0	3.060451984E0	4.238334701E0
2.833306845E1	8.931419253E-1	2.152199745E0	1.944979787E0	3.035228593E0
2.835139605E1	-7.263958454E-1	1.180391312E0	-1.057202101E0	1.743172641E0
2.836974923E1	-1.067238092E0	2.067886353E0	-2.215682030E0	3.213160122E0
2.838808959E1	2.806350589E-1	3.563802719E0	1.053710938E0	3.726895839E0
2.840641720E1	8.467991352E-1	3.014827728E0	3.638730526E0	4.800688997E0
2.842477038E1	9.871330261E-1	1.720880508E0	3.955865383E0	4.425464073E0
2.844311074E1	1.375590801E0	2.775058746E-1	3.314215660E0	3.599067241E0
2.846143840E1	1.543327570E0	-8.550252914E-1	1.904492497E0	2.596154832E0
2.847979152E1	1.678803444E0	-1.873114586E0	1.193188667E0	2.783996848E0
2.849813194E1	1.599760294E0	-2.360205650E0	5.699522495E-1	2.907687961E0
2.851647230E1	1.546719551E0	-2.481918335E0	2.062853575E-1	2.931691259E0
2.853481267E1	1.536790013E0	-2.292158127E0	1.034903526E-2	2.759677432E0
2.855315308E1	1.363734484E0	-1.941420555E0	-2.512648106E-1	2.385795364E0
2.857149345E1	7.070310712E-1	-2.531821251E0	-9.903178215E-1	2.809046310E0
2.858983381E1	2.925408483E-1	-3.532519817E0	-1.414278030E0	3.816341017E0
2.860817423E1	3.615561128E-1	-3.808758736E0	-1.311113834E0	4.044302834E0
2.862651459E1	3.163211942E-1	-3.838270664E0	-9.380756617E-1	3.963882785E0
2.864485501E1	6.971551478E-2	-2.944919586E0	-1.731332541E0	3.416858790E0
2.866319538E1	1.491259038E-1	-1.982426643E0	-1.794990897E0	2.678478346E0
2.868153574E1	5.032861829E-1	-1.375770569E0	-1.104696989E0	1.834774394E0
2.869987610E1	7.954311967E-1	-6.708259583E-1	-2.551476955E-1	1.071362964E0
2.871821647E1	1.074594975E0	3.818769455E-1	-2.163438797E-1	1.160770880E0
2.873655689E1	7.361897230E-1	8.076686859E-1	-1.049608946E0	1.515250129E0
2.875489725E1	4.651723802E-2	7.748088837E-1	-1.551871300E0	1.735164889E0
2.877323761E1	-8.843726665E-2	1.129105568E0	-9.646475315E-1	1.487698018E0
2.879157798E1	-1.356129721E-2	1.561337471E0	1.888263226E-1	1.572772707E0
2.880991840E1	-1.004199907E-1	1.402609825E0	1.306967258E0	1.919781735E0
2.882825871E1	-4.001660645E-2	1.576686859E0	2.034081459E0	2.573913395E0
2.884658631E1	-8.303486109E-1	1.392997742E0	-2.723932266E-3	1.621705566E0
2.886493949E1	-1.472717404E0	1.758159637E0	-7.938976884E-1	2.426993079E0
2.888327985E1	-6.918470263E-1	2.763856888E0	1.775590181E0	3.357123426E0
2.890160746E1	6.138335466E-1	3.001629829E0	5.692421436E0	6.464536725E0
2.891996058E1	8.036538363E-1	1.928930283E0	6.290654659E0	6.628647491E0
2.893830095E1	-5.535150170E-1	5.452442169E-1	2.119919062E0	2.257814642E0
2.895662855E1	-1.294991493E0	-2.840662003E-1	-9.199935198E-1	1.613717649E0
2.897498168E1	-1.157231331E0	-8.102464676E-1	-1.143892765E0	1.817738801E0
2.899332204E1	-1.469379067E-1	-8.380861282E-1	-4.422926903E-2	8.520183889E-1
2.901166241E1	4.445621967E-1	-7.167444229E-1	2.563936710E-1	8.815303903E-1
2.903000277E1	4.724878073E-1	-1.094469070E0	-3.155062199E-1	1.233146970E0
2.904834314E1	7.168763876E-2	-2.201206684E0	-9.098773003E-1	2.382923978E0
2.906667074E1	-1.716147959E-1	-3.173285007E0	-1.120891571E0	3.369805230E0
2.908502386E1	-2.794812322E-1	-3.499989033E0	-1.131008387E0	3.688795597E0
2.910336423E1	-3.208608627E-1	-3.041677952E0	-1.012983441E0	3.221939153E0
2.912170459E1	-2.665565610E-1	-2.581530571E0	-7.727622986E-1	2.707861529E0
2.914004496E1	-7.480505109E-2	-2.006917000E0	-5.614659786E-1	2.085319085E0
2.915838532E1	-1.046596169E-1	-1.719429493E0	-8.423495293E-1	1.917535957E0
2.917672569E1	-4.408421218E-1	-1.089568138E0	-1.588510275E0	1.976073227E0
2.919506605E1	-5.362605453E-1	1.296005249E-1	-1.657435417E0	1.746843963E0
2.921340642E1	-1.360552013E-1	1.371102333E0	-1.106188774E0	1.766942622E0
2.923174673E1	-2.327322960E-2	1.886927605E0	-4.074407816E-1	1.930555728E0
2.925008709E1	-4.501345456E-1	1.688766479E0	-5.765587091E-1	1.840373135E0
2.926842746E1	-6.473164558E-1	1.695927620E0	-4.105195999E-1	1.861105969E0
2.928675506E1	-1.439879835E-1	1.851855278E0	1.127109766E0	2.172665859E0
2.930510819E1	6.746343970E-1	2.258823395E0	2.714964628E0	3.595615056E0
2.932344855E1	1.294038534E0	1.495793343E0	3.677608013E0	4.175731571E0
2.934177610E1	7.931790352E-1	3.390321732E-1	1.674649715E0	1.883753558E0
2.936012923E1	2.435730547E-1	3.221569061E-1	-3.826544285E-1	5.563607793E-1
2.937846959E1	1.634670347E-1	1.539448738E0	-7.227839231E-1	1.708519970E0
2.939679715E1	5.993916392E-1	2.602575302E0	4.457852840E-1	2.707654531E0
2.941515027E1	6.834080219E-1	2.822278023E0	1.049380660E0	3.087636561E0
2.943349064E1	5.623075962E-1	1.365156174E0	1.081158638E0	1.829957708E0
2.945181819E1	9.442241788E-1	-4.830360413E-3	1.731018662E0	1.971803297E0
2.947017131E1	1.245266914E0	-9.548797607E-1	2.719161510E0	3.139478359E0
2.948851168E1	9.905592203E-1	-1.846465588E0	2.387088060E0	3.176292201E0
2.950683923E1	5.606774092E-1	-2.491668701E0	6.622247696E-1	2.638430162E0
2.952519235E1	3.474396169E-1	-2.723324776E0	-8.412052393E-1	2.871382659E0
2.954353272E1	4.830162525E-1	-2.756944656E0	-1.249614954E0	3.065222027E0
2.956187308E1	6.746513844E-1	-2.236725807E0	-1.542489886E0	2.799530653E0
2.958021340E1	9.442547560E-1	-1.820271492E0	-1.356934190E0	2.458917596E0
2.959855376E1	8.975304365E-1	-1.664189339E0	-1.597324610E0	2.475183417E0
2.961689412E1	7.767913938E-1	-1.684023380E0	-1.940652370E0	2.684300884E0
2.963523444E1	8.093792796E-1	-1.276003838E0	-2.174588442E0	2.648039936E0
2.965357480E1	8.617711067E-1	-9.424247742E-1	-1.984997988E0	2.360303139E0
2.967191511E1	8.497005701E-1	-7.253437042E-1	-1.988073230E0	2.280471380E0
2.969025548E1	9.468393326E-1	-2.701263428E-1	-2.034603357E0	2.260328247E0
2.970859584E1	1.075468540E0	4.340982437E-1	-1.598151803E0	1.974629852E0
2.972693616E1	9.373364449E-1	6.838474274E-1	-9.312673807E-1	1.487785552E0
2.974527652E1	5.330225229E-1	1.149742126E0	-1.056891799E0	1.650163702E0
2.976361683E1	2.159832120E-1	1.770624161E0	-9.791016579E-1	2.034796973E0
2.978195720E1	2.080765218E-1	2.360724449E0	-5.099999905E-2	2.370425439E0
2.980029756E1	5.888907313E-1	2.991999626E0	1.377283573E0	3.346007187E0
2.981863788E1	1.120275259E0	2.976583481E0	3.420762062E0	4.670832791E0
2.983697819E1	2.375769615E-1	1.626961708E0	2.266965866E0	2.800460935E0
2.985531855E1	-1.519282103E0	8.197631836E-1	-1.838257313E0	2.521788994E0
2.987365886E1	-2.546300173E0	1.721940041E0	-4.044124126E0	5.079730507E0
2.989198642E1	-1.414728999E0	2.508632660E0	9.229007959E-1	3.024308490E0
2.991033954E1	6.357817650E-1	3.217101097E0	6.791615963E0	7.541883406E0
2.992867991E1	7.141458988E-1	2.291432381E0	6.893316746E0	7.299211086E0
2.994700746E1	-1.316883922E0	2.581672668E-1	2.099522591E0	2.491752136E0
2.996536058E1	-2.320380449E0	-1.305571556E0	-1.793594599E0	3.210243620E0
2.998370090E1	-1.554824114E0	-8.005895615E-1	-2.199831247E0	2.810280980E0
3.000202845E1	1.960701942E-1	-2.997255325E-1	9.855148792E-1	1.048579274E0
3.002038157E1	7.661829591E-1	-6.475057602E-1	2.114107132E0	2.340031838E0
3.003872188E1	4.273791313E-1	-1.591811180E0	1.223755240E0	2.052825527E0
3.005704944E1	-1.836984456E-1	-2.963220596E0	-3.990757465E-2	2.969177333E0
3.007540256E1	-3.403900266E-1	-3.517570972E0	-5.760166645E-1	3.580637669E0
3.009374293E1	-5.242474675E-1	-3.741973400E0	-6.366546154E-1	3.831778886E0
3.011208324E1	-7.894286513E-1	-3.651742935E0	-9.728604555E-1	3.860684075E0
3.013042355E1	-8.726490736E-1	-3.384735107E0	-7.458459139E-1	3.574106081E0
3.014876386E1	-9.581522942E-1	-2.855820656E0	-3.689740896E-1	3.034783240E0
3.016709142E1	-9.163348079E-1	-1.691216469E0	-3.124796152E-1	1.948724233E0
3.018544454E1	-7.849217057E-1	-2.394590378E-1	-9.786063433E-1	1.277150379E0
3.020378485E1	-9.875035286E-1	8.204975128E-1	-1.540689230E0	2.005518060E0
3.022211241E1	-9.290351868E-1	1.695841789E0	-9.746068716E-1	2.165373942E0
3.024046548E1	-4.988159537E-1	2.492887497E0	1.017512083E-1	2.544338566E0
3.025880584E1	-2.594769001E-1	2.797183990E0	4.173774719E-1	2.840030016E0
3.027714616E1	-2.102127224E-1	2.735315323E0	6.166791916E-1	2.811837927E0
3.029548647E1	1.251307130E-1	2.791580200E0	1.755780697E0	3.300203564E0
3.031382678E1	6.424203515E-1	2.899260521E0	2.540264130E0	3.907858406E0
3.033216715E1	1.525125504E-1	2.463415146E0	9.965372086E-1	2.661721373E0
